File: Data/NIR/H0003LDPE_2.csv
Wavenumber,Intensity
3999.706,1.920663
4005.491,1.924587
4011.277,1.923925
4017.062,1.930084
4022.848,1.930486
4028.633,1.936054
4034.419,1.938314
4040.204,1.935007
4045.99,1.940289
4051.775,1.946506
4057.561,1.942548
4063.346,1.945733
4069.132,1.945801
4074.917,1.948054
4080.703,1.949353
4086.488,1.956757
4092.274,1.951928
4098.059,1.953567
4103.845,1.957096
4109.63,1.956693
4115.416,1.961085
4121.201,1.959666
4126.987,1.962036
4132.772,1.960527
4138.558,1.966416
4144.343,1.963185
4150.129,1.965633
4155.914,1.967662
4161.7,1.969311
4167.485,1.971838
4173.271,1.972889
4179.056,1.976495
4184.842,1.977714
4190.627,1.98491
4196.413,1.98755
4202.198,1.996319
4207.983,1.997764
4213.769,2.001335
4219.555,2.012084
4225.34,2.012456
4231.125,2.011979
4236.911,2.018805
4242.697,2.021362
4248.482,2.018934
4254.268,2.021028
4260.053,2.020681
4265.838,2.029278
4271.624,2.03185
4277.41,2.029212
4283.195,2.03485
4288.98,2.037514
4294.766,2.041235
4300.552,2.040312
4306.337,2.035077
4312.123,2.041494
4317.908,2.038878
4323.693,2.035165
4329.479,2.034986
4335.265,2.04054
4341.05,2.042055
4346.835,2.044495
4352.621,2.043652
4358.407,2.044634
4364.192,2.045761
4369.978,2.043979
4375.763,2.043608
4381.548,2.049679
4387.334,2.046502
4393.12,2.046474
4398.905,2.048312
4404.69,2.051993
4410.476,2.049946
4416.262,2.062329
4422.047,2.064162
4427.833,2.07822
4433.618,2.086347
4439.403,2.097257
4445.189,2.116046
4450.975,2.136282
4456.76,2.157284
4462.545,2.176319
4468.331,2.196164
4474.116,2.214611
4479.902,2.239326
4485.688,2.255833
4491.473,2.275564
4497.258,2.302048
4503.044,2.326894
4508.83,2.351621
4514.615,2.37404
4520.4,2.399244
4526.186,2.428576
4531.971,2.453181
4537.757,2.486329
4543.542,2.517987
4549.328,2.542265
4555.113,2.576601
4560.899,2.614171
4566.685,2.64025
4572.47,2.662753
4578.255,2.687508
4584.041,2.708244
4589.826,2.720751
4595.612,2.737223
4601.397,2.757249
4607.183,2.770055
4612.968,2.77675
4618.754,2.789006
4624.539,2.807004
4630.325,2.815787
4636.11,2.827081
4641.896,2.830264
4647.681,2.828656
4653.467,2.823673
4659.252,2.803904
4665.038,2.779499
4670.823,2.790534
4676.609,2.829145
4682.394,2.856635
4688.18,2.873205
4693.965,2.878911
4699.751,2.883925
4705.536,2.886511
4711.322,2.882859
4717.107,2.87345
4722.893,2.856865
4728.678,2.843759
4734.464,2.833662
4740.249,2.829545
4746.035,2.816186
4751.82,2.811972
4757.605,2.799233
4763.391,2.78646
4769.177,2.771366
4774.962,2.744157
4780.748,2.731971
4786.533,2.72856
4792.319,2.722504
4798.104,2.713518
4803.89,2.702263
4809.675,2.687269
4815.46,2.66358
4821.246,2.643988
4827.032,2.630743
4832.817,2.614405
4838.603,2.600177
4844.388,2.575247
4850.174,2.552974
4855.959,2.530141
4861.745,2.51476
4867.53,2.505059
4873.315,2.507615
4879.101,2.512323
4884.887,2.515865
4890.672,2.525629
4896.458,2.53154
4902.243,2.535724
4908.028,2.543124
4913.814,2.543587
4919.6,2.542679
4925.385,2.541952
4931.17,2.539301
4936.956,2.537016
4942.742,2.531448
4948.527,2.512716
4954.313,2.482846
4960.098,2.44436
4965.883,2.430275
4971.669,2.443617
4977.455,2.453641
4983.24,2.465626
4989.025,2.482288
4994.811,2.500609
5000.597,2.519113
5006.382,2.538427
5012.167,2.542269
5017.953,2.547533
5023.738,2.551641
5029.524,2.566386
5035.31,2.567688
5041.095,2.569822
5046.88,2.571601
5052.666,2.565703
5058.451,2.557243
5064.237,2.551285
5070.022,2.553113
5075.808,2.551495
5081.593,2.549492
5087.379,2.544421
5093.165,2.541088
5098.95,2.538353
5104.735,2.541166
5110.521,2.548941
5116.307,2.552629
5122.092,2.557969
5127.877,2.566595
5133.663,2.567271
5139.448,2.562313
5145.234,2.555981
5151.02,2.547903
5156.805,2.542485
5162.59,2.540372
5168.376,2.544746
5174.161,2.541165
5179.947,2.538518
5185.732,2.534798
5191.518,2.531984
5197.303,2.543551
5203.089,2.544821
5208.874,2.540076
5214.66,2.53879
5220.445,2.541819
5226.231,2.545489
5232.016,2.549216
5237.802,2.554258
5243.587,2.561759
5249.373,2.555026
5255.158,2.556319
5260.944,2.571852
5266.729,2.566656
5272.515,2.559922
5278.3,2.563269
5284.086,2.566811
5289.871,2.565499
5295.657,2.559026
5301.442,2.547729
5307.228,2.550709
5313.013,2.547232
5318.799,2.565773
5324.584,2.583015
5330.37,2.587272
5336.155,2.586087
5341.94,2.56678
5347.726,2.537694
5353.512,2.524901
5359.297,2.50016
5365.083,2.47829
5370.868,2.466778
5376.654,2.44963
5382.439,2.445822
5388.225,2.427785
5394.01,2.418866
5399.796,2.403816
5405.581,2.384189
5411.367,2.369954
5417.152,2.334737
5422.938,2.330053
5428.723,2.327261
5434.509,2.322871
5440.294,2.320358
5446.08,2.307771
5451.865,2.300137
5457.65,2.302627
5463.436,2.296481
5469.222,2.285112
5475.007,2.285137
5480.792,2.270721
5486.578,2.269735
5492.363,2.265727
5498.149,2.260766
5503.935,2.266768
5509.72,2.263259
5515.505,2.272587
5521.291,2.274734
5527.077,2.269926
5532.862,2.268479
5538.647,2.267751
5544.433,2.264345
5550.219,2.266197
5556.004,2.262553
5561.79,2.267214
5567.575,2.277995
5573.36,2.286489
5579.146,2.301669
5584.932,2.311189
5590.717,2.314821
5596.502,2.312421
5602.288,2.302915
5608.073,2.2874
5613.859,2.272106
5619.645,2.259937
5625.43,2.246946
5631.215,2.236651
5637.001,2.231315
5642.786,2.210402
5648.572,2.195013
5654.357,2.176796
5660.143,2.169175
5665.929,2.17093
5671.714,2.17488
5677.5,2.180254
5683.285,2.18822
5689.07,2.195056
5694.856,2.202867
5700.642,2.216074
5706.427,2.236006
5712.212,2.246373
5717.998,2.243466
5723.783,2.230184
5729.569,2.20384
5735.354,2.198349
5741.14,2.192681
5746.925,2.183626
5752.711,2.17559
5758.496,2.169785
5764.282,2.165846
5770.067,2.16708
5775.853,2.166684
5781.638,2.168007
5787.424,2.169874
5793.209,2.167099
5798.995,2.17043
5804.78,2.168958
5810.566,2.170638
5816.352,2.180395
5822.137,2.182348
5827.922,2.185912
5833.708,2.196414
5839.493,2.208511
5845.279,2.221338
5851.064,2.249125
5856.85,2.282218
5862.635,2.339805
5868.421,2.409798
5874.206,2.500772
5879.992,2.60353
5885.777,2.708066
5891.563,2.802296
5897.348,2.871207
5903.134,2.925835
5908.919,3.006356
5914.705,3.10886
5920.49,3.241028
5926.276,3.38864
5932.061,3.53369
5937.847,3.667115
5943.632,3.787208
5949.418,3.891447
5955.203,3.994935
5960.989,4.101988
5966.774,4.21964
5972.56,4.331024
5978.345,4.432701
5984.131,4.534533
5989.916,4.618946
5995.702,4.706193
6001.487,4.778395
6007.272,4.860013
6013.058,4.933702
6018.844,5.003208
6024.629,5.072613
6030.415,5.129497
6036.2,5.183036
6041.985,5.23394
6047.771,5.277189
6053.557,5.327698
6059.342,5.363698
6065.128,5.400524
6070.913,5.438458
6076.698,5.462269
6082.484,5.492586
6088.27,5.516994
6094.055,5.535897
6099.841,5.551184
6105.626,5.57194
6111.412,5.590826
6117.197,5.602663
6122.982,5.628122
6128.768,5.65976
6134.554,5.687888
6140.339,5.71819
6146.125,5.74938
6151.91,5.778957
6157.695,5.804753
6163.481,5.834143
6169.267,5.866726
6175.052,5.889597
6180.837,5.915523
6186.623,5.93733
6192.408,5.95393
6198.194,5.971925
6203.979,5.988129
6209.765,6.002489
6215.551,6.013922
6221.336,6.028516
6227.121,6.039137
6232.907,6.056861
6238.692,6.060837
6244.478,6.06528
6250.264,6.072008
6256.049,6.078695
6261.834,6.084203
6267.62,6.086195
6273.405,6.09151
6279.191,6.095504
6284.977,6.09763
6290.762,6.103109
6296.547,6.104519
6302.333,6.107121
6308.118,6.11167
6313.904,6.112433
6319.689,6.108596
6325.475,6.100404
6331.26,6.099833
6337.046,6.084489
6342.831,6.076814
6348.617,6.063319
6354.402,6.043964
6360.188,6.027369
6365.974,6.00491
6371.759,5.979426
6377.544,5.951087
6383.33,5.936053
6389.115,5.924459
6394.901,5.914346
6400.687,5.892276
6406.472,5.862687
6412.257,5.820025
6418.043,5.78686
6423.828,5.771077
6429.614,5.75449
6435.399,5.733552
6441.185,5.696136
6446.97,5.652575
6452.756,5.600567
6458.541,5.530531
6464.327,5.429199
6470.112,5.284838
6475.897,5.122565
6481.684,5.02752
6487.469,5.028356
6493.254,5.086026
6499.04,5.133612
6504.825,5.183337
6510.61,5.228232
6516.396,5.259298
6522.182,5.28062
6527.967,5.304755
6533.753,5.327344
6539.538,5.339464
6545.324,5.357037
6551.109,5.367885
6556.895,5.374583
6562.68,5.388421
6568.466,5.407638
6574.251,5.426974
6580.037,5.446249
6585.822,5.443115
6591.607,5.451447
6597.393,5.458053
6603.179,5.455306
6608.964,5.450031
6614.75,5.450406
6620.535,5.446868
6626.32,5.435308
6632.106,5.425981
6637.892,5.417712
6643.677,5.400392
6649.463,5.384062
6655.248,5.366127
6661.034,5.350501
6666.819,5.325363
6672.604,5.315841
6678.39,5.285264
6684.176,5.261896
6689.961,5.236397
6695.747,5.200922
6701.532,5.173824
6707.317,5.144639
6713.103,5.10973
6718.889,5.072916
6724.674,5.044616
6730.459,5.013346
6736.245,4.983681
6742.03,4.957844
6747.816,4.916694
6753.602,4.89087
6759.387,4.859517
6765.173,4.829065
6770.958,4.787144
6776.743,4.746233
6782.529,4.685757
6788.314,4.640058
6794.1,4.578723
6799.886,4.511468
6805.671,4.451593
6811.457,4.399394
6817.242,4.336209
6823.027,4.277044
6828.813,4.21433
6834.599,4.158206
6840.384,4.119711
6846.169,4.094572
6851.955,4.067233
6857.74,4.028269
6863.526,4.006152
6869.312,3.963584
6875.097,3.931629
6880.882,3.892731
6886.668,3.849788
6892.453,3.802571
6898.239,3.763985
6904.024,3.732609
6909.81,3.707772
6915.596,3.671467
6921.381,3.631655
6927.166,3.591074
6932.952,3.533988
6938.737,3.467543
6944.523,3.412374
6950.309,3.380454
6956.094,3.368392
6961.879,3.367108
6967.665,3.363065
6973.45,3.371765
6979.236,3.358079
6985.021,3.347622
6990.807,3.334132
6996.592,3.319667
7002.378,3.296427
7008.163,3.264515
7013.949,3.236444
7019.734,3.216829
7025.52,3.201691
7031.305,3.214807
7037.091,3.216521
7042.876,3.214497
7048.662,3.17855
7054.447,3.122089
7060.232,3.051384
7066.019,3.056559
7071.804,3.115723
7077.589,3.205003
7083.375,3.274996
7089.16,3.319645
7094.946,3.370582
7100.731,3.40955
7106.517,3.473746
7112.302,3.534333
7118.088,3.599328
7123.873,3.645196
7129.659,3.655989
7135.444,3.64226
7141.229,3.596816
7147.015,3.531677
7152.801,3.418508
7158.586,3.261594
7164.372,3.023924
7170.157,2.858874
7175.942,2.865176
7181.729,2.987275
7187.514,3.132413
7193.299,3.282302
7199.085,3.42428
7204.87,3.5613
7210.655,3.713363
7216.441,3.832443
7222.227,3.958831
7228.012,4.104222
7233.798,4.230873
7239.583,4.351346
7245.369,4.466937
7251.154,4.590278
7256.939,4.700541
7262.725,4.815258
7268.511,4.933579
7274.296,5.057453
7280.082,5.163345
7285.867,5.27775
7291.652,5.381466
7297.438,5.487911
7303.224,5.588377
7309.009,5.702975
7314.794,5.801283
7320.58,5.884769
7326.365,5.973907
7332.151,6.030878
7337.937,6.086408
7343.722,6.129423
7349.508,6.171986
7355.293,6.23144
7361.079,6.266854
7366.864,6.327509
7372.649,6.391663
7378.435,6.443852
7384.221,6.493465
7390.006,6.529994
7395.792,6.559361
7401.577,6.58748
7407.362,6.604536
7413.148,6.630264
7418.934,6.638218
7424.719,6.657654
7430.504,6.677954
7436.29,6.674004
7442.075,6.682902
7447.861,6.698175
7453.646,6.710121
7459.432,6.715775
7465.218,6.716617
7471.003,6.724625
7476.788,6.724746
7482.574,6.733027
7488.359,6.725522
7494.145,6.727297
7499.931,6.719599
7505.716,6.720252
7511.501,6.717943
7517.287,6.720137
7523.072,6.713985
7528.858,6.700525
7534.644,6.701489
7540.429,6.698807
7546.214,6.682694
7552.0,6.68158
7557.785,6.67456
7563.571,6.669802
7569.356,6.656401
7575.142,6.650935
7580.927,6.64204
7586.713,6.631367
7592.498,6.627003
7598.284,6.599167
7604.069,6.595539
7609.854,6.581567
7615.641,6.570848
7621.426,6.556997
7627.211,6.536309
7632.997,6.520773
7638.782,6.502239
7644.568,6.479117
7650.354,6.470175
7656.139,6.454802
7661.924,6.439653
7667.71,6.430463
7673.495,6.411957
7679.281,6.399181
7685.066,6.393298
7690.852,6.383471
7696.637,6.373562
7702.423,6.356354
7708.208,6.346255
7713.994,6.337587
7719.779,6.330472
7725.564,6.316891
7731.35,6.296739
7737.136,6.298338
7742.921,6.282227
7748.707,6.276484
7754.492,6.256736
7760.277,6.243899
7766.063,6.230105
7771.849,6.213336
7777.634,6.200457
7783.42,6.197145
7789.205,6.185187
7794.991,6.177609
7800.776,6.166859
7806.562,6.143283
7812.347,6.133767
7818.133,6.119252
7823.918,6.112127
7829.704,6.083685
7835.489,6.072122
7841.274,6.055875
7847.06,6.040477
7852.846,6.01396
7858.631,5.984142
7864.417,5.961591
7870.202,5.950533
7875.987,5.908754
7881.773,5.882644
7887.559,5.861697
7893.344,5.839844
7899.13,5.834427
7904.915,5.769051
7910.7,5.742292
7916.486,5.707426
7922.271,5.673269
7928.057,5.633079
7933.843,5.598001
7939.628,5.561383
7945.414,5.522261
7951.199,5.483399
7956.984,5.445803
7962.77,5.387673
7968.556,5.3606
7974.341,5.304104
7980.126,5.256071
7985.912,5.202518
7991.697,5.153014
7997.483,5.113226
8003.269,5.04619
8009.054,4.995193
8014.839,4.943941
8020.625,4.873796
8026.41,4.822262
8032.196,4.754997
8037.981,4.695129
8043.767,4.634492
8049.553,4.551421
8055.338,4.491544
8061.124,4.420557
8066.909,4.345327
8072.694,4.278385
8078.48,4.212615
8084.266,4.134987
8090.051,4.054743
8095.836,3.98727
8101.622,3.902038
8107.407,3.81829
8113.192,3.739002
8118.979,3.649856
8124.764,3.577428
8130.55,3.477457
8136.335,3.395637
8142.12,3.307053
8147.906,3.223057
8153.691,3.141928
8159.477,3.067737
8165.263,2.974736
8171.048,2.910414
8176.833,2.824629
8182.619,2.773222
8188.404,2.714157
8194.189,2.659011
8199.976,2.626618
8205.761,2.591842
8211.546,2.577368
8217.332,2.561603
8223.117,2.554071
8228.902,2.548579
8234.688,2.553586
8240.474,2.569838
8246.259,2.562074
8252.045,2.574805
8257.83,2.590888
8263.616,2.60772
8269.401,2.632647
8275.187,2.657753
8280.973,2.691147
8286.758,2.727933
8292.543,2.772872
8298.329,2.825681
8304.114,2.870216
8309.899,2.918136
8315.686,2.965728
8321.471,3.003784
8327.256,3.077295
8333.042,3.129862
8338.827,3.173829
8344.612,3.240154
8350.398,3.310047
8356.184,3.366818
8361.969,3.432743
8367.755,3.496688
8373.54,3.54999
8379.325,3.605694
8385.111,3.680145
8390.896,3.71562
8396.683,3.753141
8402.468,3.77677
8408.253,3.786084
8414.039,3.796132
8419.824,3.816347
8425.609,3.833773
8431.396,3.879266
8437.181,3.934428
8442.966,4.028674
8448.752,4.104866
8454.537,4.188807
8460.322,4.276215
8466.108,4.339167
8471.894,4.395541
8477.679,4.469413
8483.465,4.538276
8489.25,4.620691
8495.035,4.680754
8500.821,4.70934
8506.606,4.761093
8512.392,4.789764
8518.178,4.825626
8523.963,4.868681
8529.748,4.878611
8535.534,4.886744
8541.319,4.871505
8547.105,4.824743
8552.891,4.764285
8558.676,4.708327
8564.462,4.672909
8570.247,4.733216
8576.032,4.815739
8581.818,4.92213
8587.604,5.009894
8593.389,5.157034
8599.175,5.25529
8604.96,5.374356
8610.745,5.50039
8616.531,5.609813
8622.316,5.72403
8628.102,5.813993
8633.888,5.906897
8639.673,5.988182
8645.458,6.057648
8651.244,6.118883
8657.029,6.181891
8662.814,6.236299
8668.601,6.27561
8674.386,6.317377
8680.172,6.35765
8685.957,6.413028
8691.742,6.464908
8697.528,6.524399
8703.313,6.572636
8709.099,6.648545
8714.885,6.711092
8720.67,6.768446
8726.455,6.822986
8732.241,6.896709
8738.026,6.936068
8743.812,7.006244
8749.598,7.047819
8755.383,7.119081
8761.168,7.143435
8766.954,7.18319
8772.739,7.214251
8778.524,7.248623
8784.311,7.290764
8790.096,7.318344
8795.881,7.329233
8801.667,7.370149
8807.452,7.389872
8813.237,7.40791
8819.023,7.423695
8824.809,7.441481
8830.595,7.450496
8836.38,7.461936
8842.165,7.476476
8847.951,7.475271
8853.736,7.478916
8859.521,7.488256
8865.308,7.515276
8871.093,7.513771
8876.878,7.507492
8882.664,7.502928
8888.449,7.511506
8894.234,7.511698
8900.021,7.529128
8905.806,7.51721
8911.591,7.514647
8917.377,7.517173
8923.162,7.524619
8928.947,7.523505
8934.733,7.510671
8940.519,7.499079
8946.304,7.505115
8952.09,7.523577
8957.875,7.499679
8963.661,7.516783
8969.446,7.51845
8975.231,7.514132
8981.018,7.526456
8986.803,7.519256
8992.588,7.527907
8998.374,7.528788
9004.159,7.529975
9009.944,7.542155
9015.73,7.54535
9021.516,7.562491
9027.301,7.552575
9033.087,7.570995
9038.872,7.55237
9044.657,7.559723
9050.443,7.575504
9056.229,7.570807
9062.014,7.588953
9067.8,7.57176
9073.585,7.576586
9079.37,7.583393
9085.156,7.587662
9090.941,7.585177
9096.727,7.592681
9102.513,7.600985
9108.298,7.586741
9114.084,7.571623
9119.869,7.578146
9125.654,7.573527
9131.44,7.587788
9137.226,7.588457
9143.011,7.567269
9148.797,7.579842
9154.582,7.572576
9160.367,7.578259
9166.153,7.567888
9171.938,7.552811
9177.724,7.566562
9183.51,7.542834
9189.295,7.550287
9195.08,7.533597
9200.866,7.552
9206.651,7.528134
9212.437,7.531657
9218.223,7.51249
9224.008,7.515323
9229.793,7.517032
9235.579,7.502659
9241.364,7.511649
9247.15,7.515047
9252.936,7.510787
9258.721,7.482813
9264.507,7.513371
9270.292,7.492475
9276.077,7.477675
9281.863,7.488388
9287.648,7.463305
9293.434,7.481762
9299.22,7.475429
9305.005,7.47558
9310.79,7.479077
9316.576,7.475457
9322.361,7.47842
9328.146,7.481626
9333.933,7.455201
9339.718,7.480518
9345.503,7.483562
9351.289,7.480901
9357.074,7.450348
9362.859,7.452516
9368.646,7.451987
9374.431,7.429298
9380.217,7.432121
9386.002,7.435189
9391.787,7.411332
9397.573,7.417868
9403.358,7.400815
9409.144,7.381629
9414.93,7.398988
9420.715,7.371739
9426.5,7.358166
9432.286,7.364741
9438.071,7.3511
9443.856,7.320743
9449.643,7.311822
9455.428,7.315082
9461.213,7.285526
9466.999,7.273985
9472.784,7.256397
9478.569,7.252217
9484.355,7.268906
9490.141,7.252105
9495.926,7.24705
9501.712,7.227582
9507.497,7.254141
9513.282,7.23314
9519.068,7.228268
9524.854,7.2305
9530.64,7.204284
9536.425,7.187315
9542.21,7.185654
9547.996,7.185487
9553.781,7.162893
9559.566,7.149593
9565.353,7.147192
9571.138,7.134619
9576.923,7.132511
9582.709,7.11434
9588.494,7.128167
9594.279,7.128842
9600.065,7.134758
9605.851,7.131782
9611.636,7.140221
9617.422,7.166359
9623.207,7.147315
9628.992,7.15052
9634.778,7.204457
9640.563,7.189006
9646.349,7.257837
9652.135,7.209536
9657.92,7.274924
9663.706,7.257455
9669.491,7.30071
9675.276,7.32021
9681.063,7.316527
9686.848,7.349644
9692.633,7.342625
9698.419,7.367533
9704.204,7.387376
9709.989,7.405496
9715.775,7.446126
9721.561,7.450299
9727.346,7.442515
9733.132,7.499074
9738.917,7.498622
9744.702,7.510519
9750.488,7.560163
9756.273,7.562228
9762.059,7.576642
9767.845,7.530002
9773.63,7.553144
9779.415,7.55631
9785.201,7.553493
9790.986,7.574806
9796.771,7.588009
9802.558,7.579594
9808.343,7.562948
9814.129,7.547197
9819.914,7.570411
9825.699,7.561882
9831.485,7.583156
9837.271,7.608945
9843.056,7.596519
9848.842,7.614689
9854.627,7.619971
9860.412,7.657701
9866.198,7.673339
9871.983,7.697218
9877.769,7.73732
9883.555,7.732777
9889.34,7.753115
9895.125,7.764843
9900.911,7.786254
9906.696,7.802171
9912.481,7.803774
9918.268,7.835995
9924.053,7.855728
9929.838,7.852308
9935.624,7.871367
9941.409,7.898448
9947.195,7.91336
9952.98,7.886157
9958.766,7.93641
9964.552,7.959957
9970.337,8.005275
9976.122,7.959822
9981.908,7.973911
9987.693,8.007771
9993.479,7.998178
9999.265,8.00697
10005.05,8.011515
10010.83,8.050395
10016.62,8.027586
10022.41,8.012504
10028.19,8.022367
10033.98,8.061827
10039.76,8.038519
10045.55,8.080285
10051.33,8.077357
10057.12,8.088344
10062.9,8.102701
10068.69,8.091413
10074.48,8.116853
10080.26,8.119678
10086.05,8.151162
10091.83,8.131819
10097.62,8.138806
10103.4,8.118171
10109.19,8.166839
10114.97,8.125569
10120.76,8.12358
10126.54,8.186858
10132.33,8.17142
10138.12,8.211482
10143.9,8.192348
10149.69,8.138218
10155.47,8.169027
10161.26,8.154583
10167.04,8.187189
10172.83,8.200992
10178.61,8.150092
10184.4,8.19384
10190.19,8.196482
10195.97,8.229427
10201.76,8.179564
10207.54,8.199822
10213.33,8.215929
10219.11,8.208193
10224.9,8.206279
10230.68,8.200147
10236.47,8.200163
10242.25,8.209463
10248.04,8.197319
10253.83,8.204101
10259.61,8.193368
10265.4,8.213667
10271.18,8.222291
10276.97,8.194826
10282.75,8.165555
10288.54,8.175193
10294.32,8.184546
10300.11,8.194189
10305.9,8.192197
10311.68,8.166727
10317.47,8.160397
10323.25,8.189236
10329.04,8.15018
10334.82,8.158163
10340.61,8.1685
10346.39,8.149193
10352.18,8.144053
10357.96,8.171606
10363.75,8.15934
10369.54,8.173262
10375.32,8.151311
10381.11,8.13583
10386.89,8.156794
10392.68,8.114741
10398.46,8.14734
10404.25,8.156301
10410.03,8.135378
10415.82,8.118489
10421.61,8.155517
10427.39,8.130882
10433.18,8.111402
10438.96,8.093654
10444.75,8.119221
10450.53,8.05754
10456.32,8.091534
10462.1,8.102829
10467.89,8.05937
10473.67,8.061378
10479.46,8.074963
10485.25,8.064244
10491.03,8.040115
10496.82,8.008228
10502.6,7.989753
10508.39,7.977302
10514.17,7.97736
10519.96,7.94552
10525.74,7.932295
10531.53,7.923778
10537.32,7.907984
10543.1,7.877015
10548.89,7.863326
10554.67,7.785633
10560.46,7.766757
10566.24,7.761971
10572.03,7.696476
10577.81,7.605647
10583.6,7.680997
10589.38,7.573059
10595.17,7.566425
10600.96,7.477654
10606.74,7.477698
10612.53,7.349698
10618.31,7.343369
10624.1,7.262157
10629.88,7.199749
10635.67,7.130435
10641.45,7.110998
10647.24,7.016636
10653.03,6.987851
10658.81,6.875305
10664.6,6.860953
10670.38,6.841077
10676.17,6.75381
10681.95,6.705873
10687.74,6.664269
10693.52,6.627706
10699.31,6.585463
10705.09,6.601603
10710.88,6.590393
10716.67,6.550932
10722.45,6.593405
10728.24,6.529735
10734.02,6.570796
10739.81,6.567132
10745.59,6.54252
10751.38,6.609645
10757.16,6.638393
10762.95,6.614856
10768.74,6.674875
10774.52,6.728405
10780.31,6.772577
10786.09,6.770616
10791.88,6.770628
10797.66,6.873288
10803.45,6.890086
10809.23,6.955463
10815.02,6.975763
10820.8,7.025129
10826.59,7.044698
10832.38,7.107316
10838.16,7.218544
10843.95,7.194623
10849.73,7.235756
10855.52,7.287005
10861.3,7.384203
10867.09,7.458047
10872.87,7.436319
10878.66,7.484969
10884.45,7.527946
10890.23,7.566148
10896.02,7.534336
10901.8,7.658792
10907.59,7.630722
10913.37,7.651141
10919.16,7.73212
10924.94,7.735253
10930.73,7.724786
10936.51,7.873327
10942.3,7.81581
10948.09,7.813164
10953.87,7.887944
10959.66,7.920627
10965.44,7.96637
10971.23,8.067937
10977.01,8.035235
10982.8,8.09811
10988.58,8.062387
10994.37,8.104277
11000.16,8.087577
11005.94,8.143414
11011.73,8.207131
11017.51,8.270584
11023.3,8.214381
11029.08,8.18449
11034.87,8.215816
11040.65,8.33733
11046.44,8.252019
11052.22,8.284112
11058.01,8.337663
11063.79,8.365876
11069.58,8.35956
11075.37,8.380291
11081.15,8.406682
11086.94,8.293061
11092.72,8.340311
11098.51,8.400728
11104.29,8.402043
11110.08,8.3741
11115.87,8.399919
11121.65,8.420796
11127.44,8.464743
11133.22,8.320756
11139.01,8.364714
11144.79,8.477313
11150.58,8.479246
11156.36,8.477592
11162.15,8.520485
11167.93,8.455108
11173.72,8.505029
11179.5,8.524927
11185.29,8.568747
11191.08,8.587649
11196.86,8.609128
11202.65,8.586258
11208.43,8.64369
11214.22,8.678233
11220.0,8.660909
11225.79,8.502536
11231.58,8.69364
11237.36,8.663764
11243.15,8.628891
11248.93,8.723242
11254.72,8.788323
11260.5,8.797998
11266.29,8.699901
11272.07,8.762885
11277.86,8.715514
11283.64,8.793302
11289.43,8.736685
11295.21,8.716988
11301.0,8.808084
11306.79,8.736452
11312.57,8.816337
11318.36,8.751889
11324.14,8.833453
11329.93,8.854284
11335.71,8.890085
11341.5,8.822184
11347.28,8.852977
11353.07,8.859201
11358.86,8.844791
11364.64,8.807513
11370.43,8.828001
11376.21,8.869947
11382.0,8.901859
11387.78,8.825741
11393.57,8.929429
11399.35,8.994514
11405.14,8.804111
11410.92,8.96909
11416.71,8.910272
11422.5,8.92118
11428.28,8.954762
11434.07,9.004265
11439.85,8.94493
11445.64,8.844572
11451.42,8.979709
11457.21,9.010239
11462.99,8.931019
11468.78,8.979229
11474.57,8.931737
11480.35,9.075969
11486.14,8.926376
11491.92,8.973084
11497.71,8.971198
11503.49,9.044606
11509.28,8.972685
11515.06,9.038655
11520.85,9.086024
11526.63,9.086079
11532.42,9.060954
11538.21,8.945043
11543.99,9.038713
11549.78,9.161283
11555.56,9.032876
11561.35,9.054046
11567.13,9.045067
11572.92,8.996655
11578.7,9.110059
11584.49,9.153882
11590.28,9.157257
11596.06,9.152503
11601.85,9.181578
11607.63,8.942548
11613.42,9.068368
11619.2,9.051757
11624.99,9.21524
11630.77,9.024443
11636.56,9.163051
11642.34,9.098639
11648.13,9.033859
11653.92,9.090881
11659.7,9.168297
11665.49,8.914857
11671.27,9.212712
11677.06,9.104254
11682.84,9.119999
11688.63,9.220303
11694.41,9.179313
11700.2,9.090461
11705.99,9.190284
11711.77,9.102037
11717.56,9.311538
11723.34,9.180368
11729.13,9.002098
11734.91,9.125283
11740.7,9.218719
11746.48,9.215709
11752.27,9.238848
11758.05,9.21536
11763.84,9.274423
11769.63,9.064707
11775.41,9.2482
11781.2,9.143332
11786.98,9.045562
11792.77,9.104515
11798.55,9.075443
11804.34,8.951953
11810.12,9.105333
11815.91,9.026506
11821.7,9.158243
11827.48,9.166605
11833.27,9.291689
11839.05,9.211269
11844.84,9.132778
11850.62,8.88981
11856.41,9.11783
11862.19,9.210096
11867.98,9.257192
11873.76,9.061096
11879.55,9.142535
11885.34,8.988128
11891.12,9.022289
11896.91,9.023936
11902.69,9.037535
11908.48,9.178784
11914.26,8.873401
11920.05,9.107083
11925.83,9.079358
11931.62,9.178286
11937.41,8.977797
11943.19,9.05266
11948.98,9.317967
11954.76,9.13421
11960.55,9.174026
11966.33,9.117458
11972.12,8.945023
11977.9,9.018733
11983.69,9.117588
11989.47,9.297898
11995.26,9.002486
11999.12,9.118388