File: Data/NIR/H0008HDPE_1.csv
Wavenumber,Intensity
3999.706,2.864477
4005.491,2.862006
4011.277,2.861257
4017.062,2.850744
4022.848,2.844995
4028.633,2.851183
4034.419,2.858965
4040.204,2.857052
4045.99,2.85323
4051.775,2.860426
4057.561,2.862602
4063.346,2.860777
4069.132,2.860972
4074.917,2.862154
4080.703,2.859281
4086.488,2.861738
4092.274,2.856081
4098.059,2.854315
4103.845,2.858372
4109.63,2.859115
4115.416,2.861534
4121.201,2.86223
4126.987,2.864956
4132.772,2.862507
4138.558,2.86422
4144.343,2.865152
4150.129,2.865554
4155.914,2.868744
4161.7,2.871346
4167.485,2.872357
4173.271,2.873769
4179.056,2.879743
4184.842,2.882469
4190.627,2.890934
4196.413,2.8899
4202.198,2.909011
4207.983,2.921415
4213.769,2.924555
4219.555,2.931269
4225.34,2.938814
4231.125,2.944488
4236.911,2.945721
4242.697,2.945749
4248.482,2.928901
4254.268,2.931332
4260.053,2.946858
4265.838,2.968005
4271.624,2.977243
4277.41,2.98202
4283.195,2.985234
4288.98,2.992619
4294.766,2.996207
4300.552,2.995923
4306.337,2.982125
4312.123,2.973151
4317.908,2.951839
4323.693,2.939396
4329.479,2.948195
4335.265,2.961263
4341.05,2.967611
4346.835,2.980315
4352.621,2.99091
4358.407,3.007621
4364.192,3.016681
4369.978,3.020331
4375.763,3.035638
4381.548,3.055229
4387.334,3.070444
4393.12,3.099787
4398.905,3.135381
4404.69,3.18164
4410.476,3.234553
4416.262,3.287169
4422.047,3.329103
4427.833,3.370356
4433.618,3.403949
4439.403,3.43629
4445.189,3.476868
4450.975,3.539907
4456.76,3.596523
4462.545,3.646385
4468.331,3.688011
4474.116,3.717488
4479.902,3.77438
4485.688,3.831846
4491.473,3.892387
4497.258,3.95783
4503.044,4.01441
4508.83,4.076735
4514.615,4.141981
4520.4,4.20241
4526.186,4.258516
4531.971,4.319365
4537.757,4.380544
4543.542,4.446509
4549.328,4.51068
4555.113,4.581025
4560.899,4.652758
4566.685,4.72296
4572.47,4.776208
4578.255,4.822501
4584.041,4.861544
4589.826,4.891588
4595.612,4.910892
4601.397,4.92418
4607.183,4.951215
4612.968,4.976511
4618.754,5.007409
4624.539,5.038524
4630.325,5.062598
4636.11,5.074202
4641.896,5.07978
4647.681,5.080871
4653.467,5.061924
4659.252,5.009737
4665.038,4.931991
4670.823,4.938918
4676.609,5.034576
4682.394,5.122968
4688.18,5.161169
4693.965,5.177373
4699.751,5.177373
4705.536,5.16444
4711.322,5.128539
4717.107,5.087811
4722.893,5.060802
4728.678,5.039906
4734.464,5.032931
4740.249,5.034025
4746.035,5.019516
4751.82,4.998379
4757.605,4.967024
4763.391,4.935581
4769.177,4.883083
4774.962,4.81636
4780.748,4.784043
4786.533,4.772604
4792.319,4.764228
4798.104,4.746692
4803.89,4.716782
4809.675,4.681036
4815.46,4.63478
4821.246,4.588463
4827.032,4.555532
4832.817,4.529176
4838.603,4.493325
4844.388,4.442517
4850.174,4.390849
4855.959,4.347469
4861.745,4.307239
4867.53,4.286476
4873.315,4.289568
4879.101,4.307543
4884.887,4.327947
4890.672,4.358383
4896.458,4.369438
4902.243,4.388081
4908.028,4.399381
4913.814,4.407484
4919.6,4.406201
4925.385,4.40361
4931.17,4.401983
4936.956,4.408081
4942.742,4.391304
4948.527,4.354681
4954.313,4.275859
4960.098,4.171414
4965.883,4.152978
4971.669,4.200288
4977.455,4.223735
4983.24,4.260657
4989.025,4.302515
4994.811,4.354068
5000.597,4.420576
5006.382,4.471653
5012.167,4.484836
5017.953,4.489564
5023.738,4.506954
5029.524,4.530279
5035.31,4.544229
5041.095,4.548138
5046.88,4.550667
5052.666,4.533442
5058.451,4.501701
5064.237,4.48911
5070.022,4.493967
5075.808,4.492492
5081.593,4.485374
5087.379,4.475056
5093.165,4.465379
5098.95,4.457127
5104.735,4.465995
5110.521,4.483289
5116.307,4.4976
5122.092,4.509611
5127.877,4.529225
5133.663,4.538555
5139.448,4.531883
5145.234,4.507742
5151.02,4.479466
5156.805,4.462615
5162.59,4.46287
5168.376,4.472694
5174.161,4.468766
5179.947,4.460626
5185.732,4.453984
5191.518,4.453955
5197.303,4.471776
5203.089,4.491998
5208.874,4.476749
5214.66,4.474999
5220.445,4.479093
5226.231,4.487558
5232.016,4.50374
5237.802,4.516482
5243.587,4.544784
5249.373,4.536072
5255.158,4.556772
5260.944,4.577897
5266.729,4.565426
5272.515,4.552284
5278.3,4.558218
5284.086,4.573271
5289.871,4.577923
5295.657,4.547928
5301.442,4.521849
5307.228,4.501368
5313.013,4.518864
5318.799,4.601135
5324.584,4.654194
5330.37,4.654405
5336.155,4.652773
5341.94,4.601859
5347.726,4.512404
5353.512,4.45608
5359.297,4.400048
5365.083,4.351067
5370.868,4.317288
5376.654,4.292126
5382.439,4.289585
5388.225,4.258548
5394.01,4.237939
5399.796,4.190324
5405.581,4.150163
5411.367,4.099139
5417.152,4.002605
5422.938,3.978286
5428.723,3.970138
5434.509,3.956852
5440.294,3.964755
5446.08,3.937507
5451.865,3.918516
5457.65,3.92489
5463.436,3.90904
5469.222,3.889821
5475.007,3.881141
5480.792,3.835419
5486.578,3.814288
5492.363,3.803254
5498.149,3.80596
5503.935,3.822746
5509.72,3.835691
5515.505,3.857162
5521.291,3.863976
5527.077,3.86117
5532.862,3.857131
5538.647,3.847606
5544.433,3.834376
5550.219,3.830833
5556.004,3.832817
5561.79,3.852838
5567.575,3.886614
5573.36,3.933445
5579.146,3.997889
5584.932,4.041428
5590.717,4.049392
5596.502,4.035787
5602.288,4.003372
5608.073,3.954351
5613.859,3.905775
5619.645,3.862274
5625.43,3.819662
5631.215,3.782621
5637.001,3.736505
5642.786,3.673802
5648.572,3.566656
5654.357,3.41768
5660.143,3.313943
5665.929,3.305078
5671.714,3.362118
5677.5,3.448586
5683.285,3.515045
5689.07,3.566299
5694.856,3.62887
5700.642,3.712653
5706.427,3.79787
5712.212,3.838956
5717.998,3.820713
5723.783,3.706245
5729.569,3.523374
5735.354,3.486525
5741.14,3.465957
5746.925,3.397609
5752.711,3.331686
5758.496,3.27492
5764.282,3.220098
5770.067,3.180324
5775.853,3.169662
5781.638,3.189116
5787.424,3.215466
5793.209,3.249563
5798.995,3.27818
5804.78,3.309464
5810.566,3.349689
5816.352,3.390135
5822.137,3.438305
5827.922,3.494583
5833.708,3.570461
5839.493,3.652085
5845.279,3.763262
5851.064,3.929513
5856.85,4.162899
5862.635,4.472086
5868.421,4.822741
5874.206,5.156452
5879.992,5.459585
5885.777,5.709636
5891.563,5.915833
5897.348,6.095998
5903.134,6.26315
5908.919,6.425551
5914.705,6.575376
5920.49,6.71461
5926.276,6.852742
5932.061,6.999585
5937.847,7.129761
5943.632,7.257835
5949.418,7.383377
5955.203,7.538556
5960.989,7.731401
5966.774,7.976588
5972.56,8.214349
5978.345,8.44465
5984.131,8.651267
5989.916,8.838619
5995.702,9.015961
6001.487,9.175337
6007.272,9.332149
6013.058,9.485416
6018.844,9.636613
6024.629,9.794452
6030.415,9.93006
6036.2,10.05068
6041.985,10.14965
6047.771,10.2418
6053.557,10.33977
6059.342,10.41911
6065.128,10.47844
6070.913,10.54517
6076.698,10.60425
6082.484,10.66184
6088.27,10.70671
6094.055,10.71217
6099.841,10.61936
6105.626,10.50962
6111.412,10.54566
6117.197,10.6718
6122.982,10.78152
6128.768,10.88176
6134.554,10.95994
6140.339,11.04095
6146.125,11.10833
6151.91,11.15826
6157.695,11.2052
6163.481,11.26322
6169.267,11.31441
6175.052,11.35956
6180.837,11.39458
6186.623,11.42196
6192.408,11.44796
6198.194,11.47307
6203.979,11.49134
6209.765,11.52357
6215.551,11.54496
6221.336,11.57269
6227.121,11.60011
6232.907,11.62442
6238.692,11.63493
6244.478,11.64331
6250.264,11.6483
6256.049,11.65432
6261.834,11.66485
6267.62,11.67443
6273.405,11.68422
6279.191,11.69668
6284.977,11.70363
6290.762,11.70323
6296.547,11.71037
6302.333,11.7263
6308.118,11.73529
6313.904,11.73462
6319.689,11.7251
6325.475,11.7139
6331.26,11.69054
6337.046,11.66238
6342.831,11.64197
6348.617,11.60446
6354.402,11.56663
6360.188,11.53724
6365.974,11.48045
6371.759,11.40092
6377.544,11.33829
6383.33,11.31948
6389.115,11.30406
6394.901,11.28372
6400.687,11.2346
6406.472,11.14863
6412.257,11.0542
6418.043,10.9827
6423.828,10.94954
6429.614,10.92756
6435.399,10.88978
6441.185,10.80879
6446.97,10.69897
6452.756,10.58348
6458.541,10.45189
6464.327,10.24564
6470.112,9.929661
6475.897,9.539973
6481.684,9.286083
6487.469,9.318644
6493.254,9.479777
6499.04,9.652313
6504.825,9.794464
6510.61,9.917013
6516.396,9.99931
6522.182,10.07283
6527.967,10.13613
6533.753,10.19454
6539.538,10.24191
6545.324,10.28446
6551.109,10.31992
6556.895,10.35738
6562.68,10.39923
6568.466,10.45045
6574.251,10.50472
6580.037,10.55025
6585.822,10.56939
6591.607,10.58593
6597.393,10.59509
6603.179,10.59906
6608.964,10.60468
6614.75,10.60249
6620.535,10.60367
6626.32,10.59019
6632.106,10.57481
6637.892,10.56077
6643.677,10.53342
6649.463,10.51178
6655.248,10.47818
6661.034,10.44241
6666.819,10.39838
6672.604,10.37318
6678.39,10.32911
6684.176,10.28769
6689.961,10.23581
6695.747,10.17792
6701.532,10.12226
6707.317,10.04991
6713.103,9.976432
6718.889,9.901651
6724.674,9.837925
6730.459,9.786329
6736.245,9.72968
6742.03,9.673783
6747.816,9.613345
6753.602,9.560802
6759.387,9.496447
6765.173,9.443368
6770.958,9.358055
6776.743,9.275131
6782.529,9.159789
6788.314,9.040181
6794.1,8.907326
6799.886,8.763301
6805.671,8.627517
6811.457,8.514955
6817.242,8.387516
6823.027,8.246655
6828.813,8.088591
6834.599,7.95715
6840.384,7.898918
6846.169,7.854074
6851.955,7.801403
6857.74,7.743882
6863.526,7.691841
6869.312,7.630902
6875.097,7.5693
6880.882,7.495087
6886.668,7.401446
6892.453,7.313018
6898.239,7.234035
6904.024,7.183218
6909.81,7.141078
6915.596,7.086974
6921.381,7.004369
6927.166,6.907014
6932.952,6.790798
6938.737,6.637247
6944.523,6.508965
6950.309,6.423711
6956.094,6.406212
6961.879,6.429235
6967.665,6.438286
6973.45,6.467227
6979.236,6.467061
6985.021,6.446938
6990.807,6.408758
6996.592,6.35694
7002.378,6.297603
7008.163,6.218606
7013.949,6.151258
7019.734,6.102409
7025.52,6.088524
7031.305,6.131543
7037.091,6.17198
7042.876,6.185005
7048.662,6.110873
7054.447,5.952002
7060.232,5.777283
7066.019,5.777883
7071.804,5.995989
7077.589,6.282299
7083.375,6.490802
7089.16,6.59059
7094.946,6.657688
7100.731,6.736612
7106.517,6.876148
7112.302,7.021728
7118.088,7.165295
7123.873,7.271606
7129.659,7.305323
7135.444,7.253621
7141.229,7.13815
7147.015,6.98816
7152.801,6.737729
7158.586,6.335811
7164.372,5.707887
7170.157,5.236182
7175.942,5.278591
7181.729,5.681414
7187.514,6.14622
7193.299,6.57918
7199.085,6.96018
7204.87,7.309438
7210.655,7.612439
7216.441,7.868315
7222.227,8.131734
7228.012,8.468058
7233.798,8.767202
7239.583,9.083738
7245.369,9.318931
7251.154,9.628386
7256.939,9.871071
7262.725,10.13738
7268.511,10.38437
7274.296,10.63979
7280.082,10.87886
7285.867,11.12205
7291.652,11.34135
7297.438,11.56715
7303.224,11.7597
7309.009,12.00085
7314.794,12.20555
7320.58,12.39712
7326.365,12.59307
7332.151,12.68849
7337.937,12.85802
7343.722,12.9293
7349.508,12.99774
7355.293,13.09641
7361.079,13.14002
7366.864,13.22565
7372.649,13.27087
7378.435,13.32556
7384.221,13.3565
7390.006,13.40187
7395.792,13.42426
7401.577,13.45656
7407.362,13.47604
7413.148,13.50918
7418.934,13.52827
7424.719,13.54737
7430.504,13.56793
7436.29,13.58904
7442.075,13.60069
7447.861,13.62109
7453.646,13.64412
7459.432,13.67339
7465.218,13.67707
7471.003,13.69507
7476.788,13.692
7482.574,13.70515
7488.359,13.69124
7494.145,13.68563
7499.931,13.67139
7505.716,13.67597
7511.501,13.67135
7517.287,13.6648
7523.072,13.66848
7528.858,13.66282
7534.644,13.65421
7540.429,13.63787
7546.214,13.626
7552.0,13.602
7557.785,13.58932
7563.571,13.57937
7569.356,13.55981
7575.142,13.54038
7580.927,13.52909
7586.713,13.5044
7592.498,13.4835
7598.284,13.45471
7604.069,13.43741
7609.854,13.41104
7615.641,13.37087
7621.426,13.33652
7627.211,13.30146
7632.997,13.26423
7638.782,13.22416
7644.568,13.18993
7650.354,13.1562
7656.139,13.12453
7661.924,13.0978
7667.71,13.06634
7673.495,13.0409
7679.281,13.02415
7685.066,13.00053
7690.852,12.98499
7696.637,12.97832
7702.423,12.94967
7708.208,12.92936
7713.994,12.90583
7719.779,12.87924
7725.564,12.86358
7731.35,12.83447
7737.136,12.82132
7742.921,12.81155
7748.707,12.78835
7754.492,12.76635
7760.277,12.72733
7766.063,12.69411
7771.849,12.67388
7777.634,12.65598
7783.42,12.64769
7789.205,12.63095
7794.991,12.62637
7800.776,12.60755
7806.562,12.57466
7812.347,12.54986
7818.133,12.52255
7823.918,12.49713
7829.704,12.46553
7835.489,12.43863
7841.274,12.40932
7847.06,12.36593
7852.846,12.3228
7858.631,12.27395
7864.417,12.22461
7870.202,12.18259
7875.987,12.12223
7881.773,12.06964
7887.559,12.0113
7893.344,11.96148
7899.13,11.91967
7904.915,11.83663
7910.7,11.77495
7916.486,11.70392
7922.271,11.63808
7928.057,11.56414
7933.843,11.49638
7939.628,11.41572
7945.414,11.33489
7951.199,11.24779
7956.984,11.15674
7962.77,11.06044
7968.556,10.97222
7974.341,10.87777
7980.126,10.76908
7985.912,10.67724
7991.697,10.57366
7997.483,10.47661
8003.269,10.36341
8009.054,10.24703
8014.839,10.13501
8020.625,9.998955
8026.41,9.884424
8032.196,9.743561
8037.981,9.614801
8043.767,9.470829
8049.553,9.32576
8055.338,9.167293
8061.124,9.023021
8066.909,8.870253
8072.694,8.720448
8078.48,8.564832
8084.266,8.408718
8090.051,8.226497
8095.836,8.080215
8101.622,7.911718
8107.407,7.735605
8113.192,7.561011
8118.979,7.366459
8124.764,7.189674
8130.55,6.988262
8136.335,6.792895
8142.12,6.608647
8147.906,6.415536
8153.691,6.222021
8159.477,6.03516
8165.263,5.831663
8171.048,5.642492
8176.833,5.461216
8182.619,5.296536
8188.404,5.151152
8194.189,5.025124
8199.976,4.92031
8205.761,4.837531
8211.546,4.77232
8217.332,4.753374
8223.117,4.754377
8228.902,4.762518
8234.688,4.785249
8240.474,4.810701
8246.259,4.819222
8252.045,4.850693
8257.83,4.889828
8263.616,4.939412
8269.401,5.025216
8275.187,5.118741
8280.973,5.202045
8286.758,5.338159
8292.543,5.476947
8298.329,5.608499
8304.114,5.731717
8309.899,5.882447
8315.686,6.017569
8321.471,6.15073
8327.256,6.286685
8333.042,6.425352
8338.827,6.568459
8344.612,6.750516
8350.398,6.943145
8356.184,7.134732
8361.969,7.330044
8367.755,7.52173
8373.54,7.710036
8379.325,7.881038
8385.111,8.047451
8390.896,8.168714
8396.683,8.257793
8402.468,8.283801
8408.253,8.280239
8414.039,8.231481
8419.824,8.192774
8425.609,8.196678
8431.396,8.259794
8437.181,8.385694
8442.966,8.579883
8448.752,8.780607
8454.537,8.991971
8460.322,9.165871
8466.108,9.294137
8471.894,9.434457
8477.679,9.607033
8483.465,9.784833
8489.25,9.990597
8495.035,10.13177
8500.821,10.22591
8506.606,10.2901
8512.392,10.32616
8518.178,10.37892
8523.963,10.46221
8529.748,10.50336
8535.534,10.52258
8541.319,10.45726
8547.105,10.32181
8552.891,10.11488
8558.676,9.858828
8564.462,9.695886
8570.247,9.802477
8576.032,10.0588
8581.818,10.35231
8587.604,10.65124
8593.389,11.00388
8599.175,11.32299
8604.96,11.6636
8610.745,11.98463
8616.531,12.26276
8622.316,12.52128
8628.102,12.74271
8633.888,12.92838
8639.673,13.10639
8645.458,13.27286
8651.244,13.41463
8657.029,13.54721
8662.814,13.66785
8668.601,13.77271
8674.386,13.89111
8680.172,14.00814
8685.957,14.1152
8691.742,14.2188
8697.528,14.34655
8703.313,14.45408
8709.099,14.56709
8714.885,14.69196
8720.67,14.79091
8726.455,14.91973
8732.241,15.06176
8738.026,15.17332
8743.812,15.27996
8749.598,15.38989
8755.383,15.49427
8761.168,15.58289
8766.954,15.66607
8772.739,15.7447
8778.524,15.81308
8784.311,15.88172
8790.096,15.95486
8795.881,15.96526
8801.667,16.01214
8807.452,16.06015
8813.237,16.09809
8819.023,16.11837
8824.809,16.14803
8830.595,16.17262
8836.38,16.18692
8842.165,16.20124
8847.951,16.22341
8853.736,16.22533
8859.521,16.24293
8865.308,16.26399
8871.093,16.26087
8876.878,16.2592
8882.664,16.27731
8888.449,16.25721
8894.234,16.27255
8900.021,16.27787
8905.806,16.2778
8911.591,16.25862
8917.377,16.23624
8923.162,16.23527
8928.947,16.22126
8934.733,16.22294
8940.519,16.20724
8946.304,16.20517
8952.09,16.22942
8957.875,16.21221
8963.661,16.22963
8969.446,16.24107
8975.231,16.23381
8981.018,16.25892
8986.803,16.25801
8992.588,16.2754
8998.374,16.27857
9004.159,16.30598
9009.944,16.30768
9015.73,16.33864
9021.516,16.34135
9027.301,16.34861
9033.087,16.36563
9038.872,16.37407
9044.657,16.3787
9050.443,16.40697
9056.229,16.40379
9062.014,16.42541
9067.8,16.4263
9073.585,16.43221
9079.37,16.44176
9085.156,16.44407
9090.941,16.45936
9096.727,16.45699
9102.513,16.46664
9108.298,16.46903
9114.084,16.45112
9119.869,16.45447
9125.654,16.45007
9131.44,16.45416
9137.226,16.44477
9143.011,16.43978
9148.797,16.43318
9154.582,16.44033
9160.367,16.43339
9166.153,16.41693
9171.938,16.39874
9177.724,16.39283
9183.51,16.39456
9189.295,16.36356
9195.08,16.34801
9200.866,16.35439
9206.651,16.34326
9212.437,16.34651
9218.223,16.31463
9224.008,16.33066
9229.793,16.32339
9235.579,16.31817
9241.364,16.29729
9247.15,16.29595
9252.936,16.32071
9258.721,16.26671
9264.507,16.28554
9270.292,16.27234
9276.077,16.2568
9281.863,16.26378
9287.648,16.22475
9293.434,16.248
9299.22,16.23334
9305.005,16.26483
9310.79,16.23562
9316.576,16.27876
9322.361,16.25399
9328.146,16.29192
9333.933,16.26596
9339.718,16.26603
9345.503,16.26587
9351.289,16.25063
9357.074,16.22165
9362.859,16.2282
9368.646,16.20137
9374.431,16.1866
9380.217,16.14624
9386.002,16.14605
9391.787,16.13748
9397.573,16.09373
9403.358,16.08573
9409.144,16.06281
9414.93,16.03382
9420.715,16.01374
9426.5,15.99756
9432.286,15.96372
9438.071,15.93584
9443.856,15.9104
9449.643,15.86416
9455.428,15.8539
9461.213,15.80229
9466.999,15.79698
9472.784,15.75722
9478.569,15.74196
9484.355,15.72606
9490.141,15.72197
9495.926,15.69875
9501.712,15.69833
9507.497,15.66834
9513.282,15.6531
9519.068,15.65014
9524.854,15.62441
9530.64,15.60781
9536.425,15.59732
9542.21,15.57957
9547.996,15.53364
9553.781,15.52037
9559.566,15.49345
9565.353,15.47139
9571.138,15.43767
9576.923,15.43112
9582.709,15.40675
9588.494,15.41207
9594.279,15.38965
9600.065,15.4053
9605.851,15.40903
9611.636,15.44278
9617.422,15.49842
9623.207,15.50714
9628.992,15.54124
9634.778,15.58694
9640.563,15.60167
9646.349,15.67422
9652.135,15.70396
9657.92,15.76848
9663.706,15.81477
9669.491,15.86685
9675.276,15.90475
9681.063,15.95554
9686.848,16.01357
9692.633,16.04418
9698.419,16.08866
9704.204,16.13161
9709.989,16.18179
9715.775,16.23371
9721.561,16.2865
9727.346,16.33184
9733.132,16.37304
9738.917,16.42398
9744.702,16.44823
9750.488,16.5306
9756.273,16.5242
9762.059,16.55523
9767.845,16.55061
9773.63,16.57245
9779.415,16.59217
9785.201,16.60018
9790.986,16.62552
9796.771,16.63739
9802.558,16.61595
9808.343,16.61943
9814.129,16.6015
9819.914,16.63001
9825.699,16.62628
9831.485,16.65467
9837.271,16.66364
9843.056,16.72287
9848.842,16.72526
9854.627,16.80157
9860.412,16.85122
9866.198,16.90621
9871.983,16.95708
9877.769,17.0404
9883.555,17.05322
9889.34,17.12081
9895.125,17.18114
9900.911,17.2117
9906.696,17.24209
9912.481,17.25889
9918.268,17.32515
9924.053,17.33846
9929.838,17.36406
9935.624,17.38968
9941.409,17.47232
9947.195,17.50805
9952.98,17.51656
9958.766,17.5729
9964.552,17.59597
9970.337,17.62814
9976.122,17.6597
9981.908,17.67097
9987.693,17.664
9993.479,17.71437
9999.265,17.71035
10005.05,17.71583
10010.83,17.73349
10016.62,17.79701
10022.41,17.79979
10028.19,17.80578
10033.98,17.85291
10039.76,17.85247
10045.55,17.89695
10051.33,17.9177
10057.12,17.95368
10062.9,17.93247
10068.69,17.95093
10074.48,17.99367
10080.26,17.97298
10086.05,18.02536
10091.83,18.00089
10097.62,18.00219
10103.4,18.05514
10109.19,18.05243
10114.97,18.04353
10120.76,18.06133
10126.54,18.11303
10132.33,18.05415
10138.12,18.11838
10143.9,18.11526
10149.69,18.0803
10155.47,18.10676
10161.26,18.10948
10167.04,18.10435
10172.83,18.10862
10178.61,18.08033
10184.4,18.16488
10190.19,18.12251
10195.97,18.14162
10201.76,18.14724
10207.54,18.12235
10213.33,18.1354
10219.11,18.17345
10224.9,18.14134
10230.68,18.12807
10236.47,18.13061
10242.25,18.14054
10248.04,18.11389
10253.83,18.1257
10259.61,18.11459
10265.4,18.14053
10271.18,18.11993
10276.97,18.10065
10282.75,18.08871
10288.54,18.12052
10294.32,18.10453
10300.11,18.10781
10305.9,18.13062
10311.68,18.09662
10317.47,18.08336
10323.25,18.12751
10329.04,18.05416
10334.82,18.11236
10340.61,18.1
10346.39,18.07878
10352.18,18.08713
10357.96,18.09007
10363.75,18.10078
10369.54,18.07179
10375.32,18.05937
10381.11,18.03273
10386.89,18.05198
10392.68,18.047
10398.46,17.99824
10404.25,18.06611
10410.03,17.97662
10415.82,18.00973
10421.61,18.02752
10427.39,17.97341
10433.18,17.92534
10438.96,17.93304
10444.75,17.99036
10450.53,17.88684
10456.32,17.90948
10462.1,17.86366
10467.89,17.83649
10473.67,17.82419
10479.46,17.80769
10485.25,17.78087
10491.03,17.76247
10496.82,17.66939
10502.6,17.61772
10508.39,17.63773
10514.17,17.6153
10519.96,17.49292
10525.74,17.4886
10531.53,17.42409
10537.32,17.3884
10543.1,17.35526
10548.89,17.25304
10554.67,17.21143
10560.46,17.06442
10566.24,17.0488
10572.03,16.93243
10577.81,16.80667
10583.6,16.71592
10589.38,16.6686
10595.17,16.56484
10600.96,16.45019
10606.74,16.28171
10612.53,16.15603
10618.31,16.05718
10624.1,15.91002
10629.88,15.79581
10635.67,15.54485
10641.45,15.50042
10647.24,15.32443
10653.03,15.17589
10658.81,15.07755
10664.6,14.88197
10670.38,14.74074
10676.17,14.59045
10681.95,14.499
10687.74,14.38419
10693.52,14.32126
10699.31,14.21555
10705.09,14.22528
10710.88,14.18639
10716.67,14.12325
10722.45,14.11791
10728.24,14.09797
10734.02,14.13944
10739.81,14.15895
10745.59,14.13076
10751.38,14.26611
10757.16,14.31669
10762.95,14.36173
10768.74,14.44555
10774.52,14.52918
10780.31,14.64917
10786.09,14.7438
10791.88,14.81293
10797.66,14.93061
10803.45,15.07301
10809.23,15.17414
10815.02,15.329
10820.8,15.36122
10826.59,15.48178
10832.38,15.62577
10838.16,15.76332
10843.95,15.86442
10849.73,15.96867
10855.52,16.05051
10861.3,16.21216
10867.09,16.33159
10872.87,16.42573
10878.66,16.55324
10884.45,16.61928
10890.23,16.70838
10896.02,16.75493
10901.8,16.95902
10907.59,17.06662
10913.37,17.11975
10919.16,17.17262
10924.94,17.26724
10930.73,17.32465
10936.51,17.45366
10942.3,17.47708
10948.09,17.59464
10953.87,17.6791
10959.66,17.77275
10965.44,17.84994
10971.23,17.96972
10977.01,17.92431
10982.8,18.01942
10988.58,17.98756
10994.37,18.11887
11000.16,18.1233
11005.94,18.25421
11011.73,18.24618
11017.51,18.32254
11023.3,18.28003
11029.08,18.38355
11034.87,18.3743
11040.65,18.48039
11046.44,18.40902
11052.22,18.50927
11058.01,18.50734
11063.79,18.60723
11069.58,18.54876
11075.37,18.61698
11081.15,18.56297
11086.94,18.56979
11092.72,18.55331
11098.51,18.60399
11104.29,18.6006
11110.08,18.58427
11115.87,18.6119
11121.65,18.65521
11127.44,18.69582
11133.22,18.56576
11139.01,18.64362
11144.79,18.73508
11150.58,18.76333
11156.36,18.79545
11162.15,18.81248
11167.93,18.73582
11173.72,18.83508
11179.5,18.88551
11185.29,18.89222
11191.08,18.87545
11196.86,19.00431
11202.65,18.98068
11208.43,19.12298
11214.22,19.09087
11220.0,19.11948
11225.79,19.09942
11231.58,19.11407
11237.36,19.24475
11243.15,19.19411
11248.93,19.32921
11254.72,19.37895
11260.5,19.40796
11266.29,19.35826
11272.07,19.4639
11277.86,19.40245
11283.64,19.4378
11289.43,19.46907
11295.21,19.477
11301.0,19.42505
11306.79,19.50162
11312.57,19.56894
11318.36,19.49033
11324.14,19.56566
11329.93,19.62562
11335.71,19.61797
11341.5,19.5997
11347.28,19.70168
11353.07,19.73032
11358.86,19.59835
11364.64,19.70612
11370.43,19.63203
11376.21,19.67165
11382.0,19.83057
11387.78,19.7681
11393.57,19.74352
11399.35,19.74822
11405.14,19.68016
11410.92,19.83864
11416.71,19.91477
11422.5,19.78609
11428.28,19.83925
11434.07,19.85773
11439.85,19.80619
11445.64,19.78381
11451.42,19.98174
11457.21,19.93623
11462.99,19.90846
11468.78,19.92822
11474.57,19.96868
11480.35,20.0854
11486.14,19.96534
11491.92,20.00407
11497.71,19.98866
11503.49,20.09295
11509.28,20.08906
11515.06,20.08314
11520.85,20.10642
11526.63,20.1785
11532.42,20.05338
11538.21,20.14987
11543.99,20.13165
11549.78,20.17355
11555.56,20.13787
11561.35,20.15451
11567.13,20.11913
11572.92,20.16868
11578.7,20.17633
11584.49,20.26232
11590.28,20.20062
11596.06,20.13068
11601.85,20.30992
11607.63,20.20525
11613.42,20.27221
11619.2,20.25618
11624.99,20.36389
11630.77,20.24624
11636.56,20.30231
11642.34,20.3032
11648.13,20.31496
11653.92,20.3466
11659.7,20.44933
11665.49,20.17463
11671.27,20.35645
11677.06,20.28966
11682.84,20.2141
11688.63,20.27013
11694.41,20.33969
11700.2,20.36985
11705.99,20.35844
11711.77,20.30555
11717.56,20.34682
11723.34,20.43695
11729.13,20.27893
11734.91,20.33117
11740.7,20.36313
11746.48,20.43913
11752.27,20.30829
11758.05,20.35389
11763.84,20.29663
11769.63,20.27351
11775.41,20.27508
11781.2,20.32392
11786.98,20.24343
11792.77,20.24226
11798.55,20.31889
11804.34,20.25741
11810.12,20.34091
11815.91,20.3467
11821.7,20.32976
11827.48,20.3371
11833.27,20.46904
11839.05,20.36697
11844.84,20.38314
11850.62,20.28691
11856.41,20.4012
11862.19,20.52343
11867.98,20.55941
11873.76,20.47582
11879.55,20.53862
11885.34,20.4356
11891.12,20.50526
11896.91,20.55163
11902.69,20.5401
11908.48,20.66693
11914.26,20.59559
11920.05,20.65382
11925.83,20.70704
11931.62,20.60328
11937.41,20.64119
11943.19,20.60156
11948.98,20.66861
11954.76,20.67634
11960.55,20.7499
11966.33,20.58915
11972.12,20.57742
11977.9,20.63637
11983.69,20.6377
11989.47,20.67776
11995.26,20.66252
11999.12,20.78157