File: Data/NIR/H0007HDPE_4.csv
Wavenumber,Intensity
3999.706,3.14336
4005.491,3.143183
4011.277,3.135738
4017.062,3.112833
4022.848,3.104635
4028.633,3.111868
4034.419,3.117952
4040.204,3.112448
4045.99,3.11881
4051.775,3.11594
4057.561,3.115382
4063.346,3.116583
4069.132,3.114956
4074.917,3.114115
4080.703,3.105618
4086.488,3.094386
4092.274,3.091295
4098.059,3.083361
4103.845,3.097054
4109.63,3.092241
4115.416,3.093593
4121.201,3.093814
4126.987,3.093419
4132.772,3.097005
4138.558,3.094719
4144.343,3.094621
4150.129,3.097271
4155.914,3.09945
4161.7,3.101268
4167.485,3.099434
4173.271,3.105322
4179.056,3.110345
4184.842,3.11378
4190.627,3.122956
4196.413,3.128392
4202.198,3.141288
4207.983,3.152472
4213.769,3.157163
4219.555,3.161687
4225.34,3.170292
4231.125,3.184289
4236.911,3.188328
4242.697,3.175552
4248.482,3.152458
4254.268,3.155784
4260.053,3.182359
4265.838,3.205142
4271.624,3.216913
4277.41,3.229589
4283.195,3.234991
4288.98,3.240344
4294.766,3.245776
4300.552,3.245249
4306.337,3.233433
4312.123,3.203076
4317.908,3.169496
4323.693,3.158818
4329.479,3.172013
4335.265,3.183406
4341.05,3.200253
4346.835,3.210162
4352.621,3.238644
4358.407,3.255199
4364.192,3.268651
4369.978,3.28479
4375.763,3.300496
4381.548,3.321472
4387.334,3.339572
4393.12,3.376254
4398.905,3.407197
4404.69,3.460411
4410.476,3.525774
4416.262,3.585166
4422.047,3.642641
4427.833,3.697126
4433.618,3.736961
4439.403,3.787578
4445.189,3.847336
4450.975,3.92232
4456.76,3.998952
4462.545,4.07157
4468.331,4.14651
4474.116,4.208745
4479.902,4.280068
4485.688,4.345711
4491.473,4.418989
4497.258,4.488297
4503.044,4.56411
4508.83,4.644927
4514.615,4.731399
4520.4,4.80106
4526.186,4.873521
4531.971,4.947442
4537.757,5.024906
4543.542,5.100734
4549.328,5.181665
4555.113,5.270167
4560.899,5.360851
4566.685,5.446796
4572.47,5.521794
4578.255,5.574467
4584.041,5.619527
4589.826,5.661879
4595.612,5.700435
4601.397,5.721961
4607.183,5.750584
4612.968,5.774974
4618.754,5.798789
4624.539,5.832327
4630.325,5.863615
4636.11,5.88084
4641.896,5.889754
4647.681,5.882978
4653.467,5.852759
4659.252,5.777424
4665.038,5.680925
4670.823,5.688385
4676.609,5.803881
4682.394,5.914362
4688.18,5.971111
4693.965,5.990898
4699.751,6.000519
4705.536,5.996051
4711.322,5.980567
4717.107,5.946744
4722.893,5.894134
4728.678,5.838136
4734.464,5.807407
4740.249,5.791555
4746.035,5.758832
4751.82,5.723596
4757.605,5.689019
4763.391,5.638332
4769.177,5.566509
4774.962,5.48559
4780.748,5.439518
4786.533,5.428319
4792.319,5.407721
4798.104,5.383357
4803.89,5.341984
4809.675,5.29346
4815.46,5.227257
4821.246,5.168259
4827.032,5.129875
4832.817,5.089777
4838.603,5.036313
4844.388,4.971328
4850.174,4.903864
4855.959,4.845295
4861.745,4.796163
4867.53,4.764469
4873.315,4.765219
4879.101,4.789433
4884.887,4.81375
4890.672,4.842483
4896.458,4.864505
4902.243,4.879762
4908.028,4.895213
4913.814,4.898797
4919.6,4.894819
4925.385,4.887865
4931.17,4.886689
4936.956,4.885434
4942.742,4.873591
4948.527,4.822994
4954.313,4.715344
4960.098,4.584617
4965.883,4.554405
4971.669,4.613188
4977.455,4.648721
4983.24,4.685104
4989.025,4.739474
4994.811,4.80014
5000.597,4.889452
5006.382,4.940176
5012.167,4.962634
5017.953,4.953811
5023.738,4.980991
5029.524,5.013446
5035.31,5.022504
5041.095,5.029756
5046.88,5.033978
5052.666,5.011332
5058.451,4.966206
5064.237,4.94776
5070.022,4.955538
5075.808,4.956568
5081.593,4.94559
5087.379,4.92788
5093.165,4.910511
5098.95,4.901053
5104.735,4.90972
5110.521,4.933128
5116.307,4.952609
5122.092,4.964132
5127.877,4.981968
5133.663,4.991864
5139.448,4.981663
5145.234,4.95439
5151.02,4.920012
5156.805,4.897573
5162.59,4.892765
5168.376,4.898259
5174.161,4.895438
5179.947,4.882243
5185.732,4.876505
5191.518,4.878365
5197.303,4.897714
5203.089,4.907142
5208.874,4.911454
5214.66,4.894104
5220.445,4.901189
5226.231,4.917385
5232.016,4.928206
5237.802,4.937752
5243.587,4.976256
5249.373,4.972021
5255.158,4.999113
5260.944,5.009349
5266.729,4.994894
5272.515,4.974839
5278.3,4.976799
5284.086,4.992409
5289.871,4.99994
5295.657,4.96195
5301.442,4.930839
5307.228,4.902149
5313.013,4.923111
5318.799,5.023241
5324.584,5.080948
5330.37,5.07818
5336.155,5.07412
5341.94,5.003975
5347.726,4.918621
5353.512,4.847214
5359.297,4.766365
5365.083,4.715592
5370.868,4.656535
5376.654,4.642415
5382.439,4.624077
5388.225,4.586847
5394.01,4.562738
5399.796,4.495281
5405.581,4.442566
5411.367,4.385574
5417.152,4.262115
5422.938,4.232335
5428.723,4.222906
5434.509,4.206827
5440.294,4.209019
5446.08,4.182147
5451.865,4.155314
5457.65,4.149285
5463.436,4.135615
5469.222,4.116706
5475.007,4.105804
5480.792,4.047779
5486.578,4.016973
5492.363,4.01321
5498.149,4.012424
5503.935,4.029518
5509.72,4.040656
5515.505,4.064435
5521.291,4.072779
5527.077,4.067257
5532.862,4.061145
5538.647,4.048467
5544.433,4.039647
5550.219,4.029754
5556.004,4.02814
5561.79,4.050353
5567.575,4.088241
5573.36,4.146015
5579.146,4.209143
5584.932,4.258262
5590.717,4.270062
5596.502,4.254533
5602.288,4.2098
5608.073,4.157434
5613.859,4.100203
5619.645,4.047861
5625.43,3.995066
5631.215,3.952286
5637.001,3.900964
5642.786,3.837937
5648.572,3.721194
5654.357,3.579115
5660.143,3.48299
5665.929,3.476492
5671.714,3.5238
5677.5,3.59576
5683.285,3.65711
5689.07,3.708282
5694.856,3.774881
5700.642,3.86195
5706.427,3.946624
5712.212,3.991712
5717.998,3.974
5723.783,3.853774
5729.569,3.671564
5735.354,3.631412
5741.14,3.606339
5746.925,3.547962
5752.711,3.484478
5758.496,3.441723
5764.282,3.40656
5770.067,3.374197
5775.853,3.369017
5781.638,3.382195
5787.424,3.400536
5793.209,3.424688
5798.995,3.447167
5804.78,3.469429
5810.566,3.49877
5816.352,3.534117
5822.137,3.574002
5827.922,3.629903
5833.708,3.700824
5839.493,3.782018
5845.279,3.88989
5851.064,4.065237
5856.85,4.306942
5862.635,4.636909
5868.421,5.012498
5874.206,5.402049
5879.992,5.761382
5885.777,6.070844
5891.563,6.317522
5897.348,6.501894
5903.134,6.677488
5908.919,6.887779
5914.705,7.118164
5920.49,7.339115
5926.276,7.552148
5932.061,7.75119
5937.847,7.94234
5943.632,8.113832
5949.418,8.285527
5955.203,8.467522
5960.989,8.699883
5966.774,8.973887
5972.56,9.246656
5978.345,9.505627
5984.131,9.738353
5989.916,9.962676
5995.702,10.16503
6001.487,10.35884
6007.272,10.54231
6013.058,10.72491
6018.844,10.90171
6024.629,11.07045
6030.415,11.21888
6036.2,11.35168
6041.985,11.47365
6047.771,11.58786
6053.557,11.68672
6059.342,11.78764
6065.128,11.87354
6070.913,11.95532
6076.698,12.02543
6082.484,12.09059
6088.27,12.15591
6094.055,12.20589
6099.841,12.24326
6105.626,12.27917
6111.412,12.31941
6117.197,12.37593
6122.982,12.43311
6128.768,12.47824
6134.554,12.51882
6140.339,12.56622
6146.125,12.60274
6151.91,12.6436
6157.695,12.68307
6163.481,12.72826
6169.267,12.76983
6175.052,12.82342
6180.837,12.84929
6186.623,12.87494
6192.408,12.90192
6198.194,12.92826
6203.979,12.95137
6209.765,12.9856
6215.551,13.0063
6221.336,13.03765
6227.121,13.05681
6232.907,13.07115
6238.692,13.0823
6244.478,13.09469
6250.264,13.09787
6256.049,13.09675
6261.834,13.10832
6267.62,13.11739
6273.405,13.12777
6279.191,13.12893
6284.977,13.13725
6290.762,13.14155
6296.547,13.14429
6302.333,13.16241
6308.118,13.15885
6313.904,13.16317
6319.689,13.1502
6325.475,13.13367
6331.26,13.10296
6337.046,13.07914
6342.831,13.04266
6348.617,12.99618
6354.402,12.96354
6360.188,12.92054
6365.974,12.85533
6371.759,12.76016
6377.544,12.69242
6383.33,12.66107
6389.115,12.64015
6394.901,12.61638
6400.687,12.5661
6406.472,12.4649
6412.257,12.3578
6418.043,12.27256
6423.828,12.22444
6429.614,12.19868
6435.399,12.15147
6441.185,12.06356
6446.97,11.93332
6452.756,11.79203
6458.541,11.64369
6464.327,11.41189
6470.112,11.04933
6475.897,10.60516
6481.684,10.31846
6487.469,10.36117
6493.254,10.53679
6499.04,10.7204
6504.825,10.87535
6510.61,11.00485
6516.396,11.10067
6522.182,11.18017
6527.967,11.24462
6533.753,11.31132
6539.538,11.35515
6545.324,11.39801
6551.109,11.43814
6556.895,11.47483
6562.68,11.51562
6568.466,11.57055
6574.251,11.6241
6580.037,11.6626
6585.822,11.68919
6591.607,11.7071
6597.393,11.71143
6603.179,11.71299
6608.964,11.71214
6614.75,11.70801
6620.535,11.69793
6626.32,11.68084
6632.106,11.66074
6637.892,11.64039
6643.677,11.60612
6649.463,11.57511
6655.248,11.53349
6661.034,11.49588
6666.819,11.44758
6672.604,11.4039
6678.39,11.35797
6684.176,11.30395
6689.961,11.24092
6695.747,11.18133
6701.532,11.11021
6707.317,11.03214
6713.103,10.94779
6718.889,10.86481
6724.674,10.78379
6730.459,10.7217
6736.245,10.65407
6742.03,10.58307
6747.816,10.51635
6753.602,10.44935
6759.387,10.38167
6765.173,10.30616
6770.958,10.22126
6776.743,10.11888
6782.529,9.99145
6788.314,9.851414
6794.1,9.697382
6799.886,9.534691
6805.671,9.37758
6811.457,9.244757
6817.242,9.109849
6823.027,8.945541
6828.813,8.763153
6834.599,8.623009
6840.384,8.542624
6846.169,8.495574
6851.955,8.430609
6857.74,8.358052
6863.526,8.292445
6869.312,8.222851
6875.097,8.150535
6880.882,8.055114
6886.668,7.960762
6892.453,7.848938
6898.239,7.760775
6904.024,7.704798
6909.81,7.646436
6915.596,7.573876
6921.381,7.482267
6927.166,7.366063
6932.952,7.220048
6938.737,7.06443
6944.523,6.90963
6950.309,6.811939
6956.094,6.796582
6961.879,6.813144
6967.665,6.822353
6973.45,6.839548
6979.236,6.843162
6985.021,6.820888
6990.807,6.777063
6996.592,6.719081
7002.378,6.646339
7008.163,6.56168
7013.949,6.489689
7019.734,6.424777
7025.52,6.416585
7031.305,6.453167
7037.091,6.493746
7042.876,6.497398
7048.662,6.416605
7054.447,6.234396
7060.232,6.044876
7066.019,6.042298
7071.804,6.282119
7077.589,6.606165
7083.375,6.836057
7089.16,6.94417
7094.946,7.034192
7100.731,7.124093
7106.517,7.28366
7112.302,7.435946
7118.088,7.612131
7123.873,7.720991
7129.659,7.747289
7135.444,7.68924
7141.229,7.552025
7147.015,7.374124
7152.801,7.09515
7158.586,6.619713
7164.372,5.935974
7170.157,5.418749
7175.942,5.466493
7181.729,5.921299
7187.514,6.417321
7193.299,6.885801
7199.085,7.294162
7204.87,7.710275
7210.655,8.033264
7216.441,8.30958
7222.227,8.608075
7228.012,8.974965
7233.798,9.309956
7239.583,9.631956
7245.369,9.897816
7251.154,10.21534
7256.939,10.48221
7262.725,10.78554
7268.511,11.04988
7274.296,11.32867
7280.082,11.58766
7285.867,11.84254
7291.652,12.08467
7297.438,12.32057
7303.224,12.54639
7309.009,12.80588
7314.794,13.01852
7320.58,13.22371
7326.365,13.43434
7332.151,13.53196
7337.937,13.70425
7343.722,13.78574
7349.508,13.86208
7355.293,13.97602
7361.079,14.04339
7366.864,14.13941
7372.649,14.18461
7378.435,14.2537
7384.221,14.29579
7390.006,14.35219
7395.792,14.38729
7401.577,14.42107
7407.362,14.44152
7413.148,14.47714
7418.934,14.50396
7424.719,14.50595
7430.504,14.52599
7436.29,14.54869
7442.075,14.5598
7447.861,14.5897
7453.646,14.60816
7459.432,14.62426
7465.218,14.63171
7471.003,14.64248
7476.788,14.6477
7482.574,14.6504
7488.359,14.64345
7494.145,14.6432
7499.931,14.63615
7505.716,14.62342
7511.501,14.61572
7517.287,14.60241
7523.072,14.60315
7528.858,14.59072
7534.644,14.57194
7540.429,14.55186
7546.214,14.53215
7552.0,14.50855
7557.785,14.48926
7563.571,14.47402
7569.356,14.44711
7575.142,14.42569
7580.927,14.39973
7586.713,14.38496
7592.498,14.36237
7598.284,14.32922
7604.069,14.29519
7609.854,14.26604
7615.641,14.229
7621.426,14.18817
7627.211,14.15502
7632.997,14.09758
7638.782,14.05775
7644.568,14.02388
7650.354,13.98554
7656.139,13.94368
7661.924,13.91347
7667.71,13.88085
7673.495,13.84937
7679.281,13.82699
7685.066,13.80259
7690.852,13.78089
7696.637,13.7629
7702.423,13.74485
7708.208,13.71306
7713.994,13.69454
7719.779,13.66258
7725.564,13.63947
7731.35,13.61082
7737.136,13.59993
7742.921,13.57747
7748.707,13.56125
7754.492,13.52271
7760.277,13.48005
7766.063,13.45395
7771.849,13.40979
7777.634,13.3869
7783.42,13.37977
7789.205,13.3654
7794.991,13.3562
7800.776,13.3278
7806.562,13.2873
7812.347,13.25602
7818.133,13.23427
7823.918,13.19302
7829.704,13.16226
7835.489,13.13416
7841.274,13.09337
7847.06,13.04376
7852.846,13.00258
7858.631,12.94724
7864.417,12.89882
7870.202,12.84087
7875.987,12.78364
7881.773,12.72129
7887.559,12.65895
7893.344,12.58461
7899.13,12.53652
7904.915,12.45199
7910.7,12.39541
7916.486,12.31829
7922.271,12.2352
7928.057,12.16825
7933.843,12.07955
7939.628,11.98982
7945.414,11.89485
7951.199,11.80975
7956.984,11.70388
7962.77,11.61299
7968.556,11.49987
7974.341,11.39663
7980.126,11.29548
7985.912,11.17959
7991.697,11.06554
7997.483,10.95315
8003.269,10.82895
8009.054,10.70206
8014.839,10.57694
8020.625,10.43789
8026.41,10.29768
8032.196,10.15906
8037.981,9.998577
8043.767,9.85659
8049.553,9.698793
8055.338,9.539159
8061.124,9.373538
8066.909,9.209228
8072.694,9.036937
8078.48,8.860743
8084.266,8.692575
8090.051,8.523278
8095.836,8.338724
8101.622,8.159553
8107.407,7.960921
8113.192,7.760604
8118.979,7.552579
8124.764,7.348143
8130.55,7.132068
8136.335,6.931771
8142.12,6.73703
8147.906,6.517095
8153.691,6.32053
8159.477,6.098421
8165.263,5.888824
8171.048,5.688621
8176.833,5.494076
8182.619,5.305842
8188.404,5.155589
8194.189,5.016156
8199.976,4.919588
8205.761,4.831924
8211.546,4.761922
8217.332,4.741494
8223.117,4.735522
8228.902,4.747269
8234.688,4.766218
8240.474,4.789611
8246.259,4.800869
8252.045,4.829292
8257.83,4.858112
8263.616,4.94632
8269.401,5.008995
8275.187,5.104505
8280.973,5.200449
8286.758,5.32451
8292.543,5.462778
8298.329,5.605556
8304.114,5.752172
8309.899,5.897991
8315.686,6.036865
8321.471,6.178779
8327.256,6.315877
8333.042,6.456328
8338.827,6.619808
8344.612,6.80117
8350.398,6.987871
8356.184,7.18454
8361.969,7.390594
8367.755,7.588567
8373.54,7.772461
8379.325,7.957946
8385.111,8.104526
8390.896,8.246376
8396.683,8.341238
8402.468,8.385549
8408.253,8.379756
8414.039,8.341005
8419.824,8.299353
8425.609,8.315687
8431.396,8.378119
8437.181,8.532212
8442.966,8.718295
8448.752,8.930811
8454.537,9.15832
8460.322,9.34332
8466.108,9.477383
8471.894,9.63658
8477.679,9.807215
8483.465,9.991242
8489.25,10.18455
8495.035,10.34579
8500.821,10.44808
8506.606,10.51736
8512.392,10.54658
8518.178,10.6096
8523.963,10.68021
8529.748,10.74181
8535.534,10.76561
8541.319,10.69359
8547.105,10.56271
8552.891,10.35161
8558.676,10.10379
8564.462,9.92756
8570.247,10.04727
8576.032,10.30318
8581.818,10.58255
8587.604,10.89797
8593.389,11.23401
8599.175,11.59905
8604.96,11.93917
8610.745,12.25308
8616.531,12.52957
8622.316,12.78214
8628.102,13.0173
8633.888,13.2052
8639.673,13.39222
8645.458,13.55917
8651.244,13.7066
8657.029,13.84225
8662.814,13.96907
8668.601,14.06104
8674.386,14.18027
8680.172,14.29245
8685.957,14.40018
8691.742,14.52067
8697.528,14.65157
8703.313,14.78762
8709.099,14.91321
8714.885,15.02827
8720.67,15.14376
8726.455,15.27237
8732.241,15.39577
8738.026,15.52576
8743.812,15.63393
8749.598,15.72848
8755.383,15.83604
8761.168,15.93201
8766.954,16.01919
8772.739,16.09279
8778.524,16.14499
8784.311,16.2261
8790.096,16.27201
8795.881,16.30344
8801.667,16.35114
8807.452,16.38212
8813.237,16.43024
8819.023,16.43689
8824.809,16.47781
8830.595,16.49075
8836.38,16.50529
8842.165,16.53543
8847.951,16.52845
8853.736,16.53974
8859.521,16.54923
8865.308,16.56967
8871.093,16.5773
8876.878,16.57359
8882.664,16.56945
8888.449,16.57508
8894.234,16.58291
8900.021,16.57341
8905.806,16.57734
8911.591,16.55607
8917.377,16.54139
8923.162,16.55378
8928.947,16.53622
8934.733,16.53735
8940.519,16.53868
8946.304,16.51708
8952.09,16.51118
8957.875,16.50099
8963.661,16.51293
8969.446,16.51694
8975.231,16.51895
8981.018,16.53341
8986.803,16.53394
8992.588,16.54732
8998.374,16.56522
9004.159,16.5805
9009.944,16.57013
9015.73,16.60259
9021.516,16.5863
9027.301,16.61507
9033.087,16.62394
9038.872,16.62597
9044.657,16.635
9050.443,16.62442
9056.229,16.65128
9062.014,16.64603
9067.8,16.68062
9073.585,16.66222
9079.37,16.66638
9085.156,16.68578
9090.941,16.68227
9096.727,16.68932
9102.513,16.68453
9108.298,16.68541
9114.084,16.68013
9119.869,16.68204
9125.654,16.68562
9131.44,16.67431
9137.226,16.64901
9143.011,16.63767
9148.797,16.64421
9154.582,16.61256
9160.367,16.63432
9166.153,16.603
9171.938,16.60468
9177.724,16.59695
9183.51,16.57714
9189.295,16.56386
9195.08,16.54507
9200.866,16.53916
9206.651,16.51966
9212.437,16.51447
9218.223,16.51371
9224.008,16.49515
9229.793,16.49838
9235.579,16.48201
9241.364,16.48257
9247.15,16.47121
9252.936,16.44651
9258.721,16.43958
9264.507,16.40695
9270.292,16.42181
9276.077,16.40255
9281.863,16.38555
9287.648,16.377
9293.434,16.38442
9299.22,16.37347
9305.005,16.38808
9310.79,16.38603
9316.576,16.40194
9322.361,16.40381
9328.146,16.403
9333.933,16.41136
9339.718,16.37009
9345.503,16.37205
9351.289,16.36756
9357.074,16.35845
9362.859,16.34972
9368.646,16.32132
9374.431,16.29962
9380.217,16.28734
9386.002,16.26443
9391.787,16.22694
9397.573,16.21455
9403.358,16.20409
9409.144,16.16485
9414.93,16.14223
9420.715,16.09799
9426.5,16.09327
9432.286,16.06089
9438.071,16.04927
9443.856,16.019
9449.643,15.99591
9455.428,15.9388
9461.213,15.92344
9466.999,15.87201
9472.784,15.855
9478.569,15.84311
9484.355,15.81716
9490.141,15.78829
9495.926,15.78173
9501.712,15.76775
9507.497,15.75835
9513.282,15.74361
9519.068,15.7276
9524.854,15.69675
9530.64,15.68293
9536.425,15.67053
9542.21,15.6376
9547.996,15.6064
9553.781,15.57198
9559.566,15.56726
9565.353,15.52982
9571.138,15.50772
9576.923,15.50006
9582.709,15.46322
9588.494,15.46765
9594.279,15.43381
9600.065,15.44218
9605.851,15.46975
9611.636,15.49523
9617.422,15.52002
9623.207,15.55274
9628.992,15.60783
9634.778,15.62773
9640.563,15.64995
9646.349,15.68899
9652.135,15.74801
9657.92,15.81379
9663.706,15.82816
9669.491,15.88493
9675.276,15.94291
9681.063,15.96416
9686.848,15.99957
9692.633,16.05169
9698.419,16.09174
9704.204,16.11395
9709.989,16.16778
9715.775,16.23316
9721.561,16.26858
9727.346,16.30544
9733.132,16.36259
9738.917,16.39984
9744.702,16.43123
9750.488,16.45119
9756.273,16.50383
9762.059,16.5093
9767.845,16.53514
9773.63,16.55897
9779.415,16.54591
9785.201,16.54036
9790.986,16.5764
9796.771,16.53539
9802.558,16.53801
9808.343,16.54359
9814.129,16.53931
9819.914,16.52179
9825.699,16.5745
9831.485,16.571
9837.271,16.5869
9843.056,16.62231
9848.842,16.6698
9854.627,16.70879
9860.412,16.75773
9866.198,16.79133
9871.983,16.85447
9877.769,16.89962
9883.555,16.93335
9889.34,16.99532
9895.125,17.01147
9900.911,17.05461
9906.696,17.13776
9912.481,17.14231
9918.268,17.16349
9924.053,17.18866
9929.838,17.21559
9935.624,17.29977
9941.409,17.27761
9947.195,17.28611
9952.98,17.32829
9958.766,17.37795
9964.552,17.40518
9970.337,17.40255
9976.122,17.43046
9981.908,17.44918
9987.693,17.47963
9993.479,17.49467
9999.265,17.50421
10005.05,17.53216
10010.83,17.51288
10016.62,17.56519
10022.41,17.57416
10028.19,17.61453
10033.98,17.62506
10039.76,17.64607
10045.55,17.66455
10051.33,17.68822
10057.12,17.70279
10062.9,17.72701
10068.69,17.73908
10074.48,17.71245
10080.26,17.75222
10086.05,17.78214
10091.83,17.76858
10097.62,17.77387
10103.4,17.76618
10109.19,17.75435
10114.97,17.78463
10120.76,17.84063
10126.54,17.81114
10132.33,17.80965
10138.12,17.81838
10143.9,17.8167
10149.69,17.82749
10155.47,17.83949
10161.26,17.83178
10167.04,17.84748
10172.83,17.85876
10178.61,17.82226
10184.4,17.83011
10190.19,17.82967
10195.97,17.86136
10201.76,17.84394
10207.54,17.87585
10213.33,17.86807
10219.11,17.84504
10224.9,17.88668
10230.68,17.86128
10236.47,17.8218
10242.25,17.83336
10248.04,17.86345
10253.83,17.85892
10259.61,17.83794
10265.4,17.83507
10271.18,17.81368
10276.97,17.8162
10282.75,17.78586
10288.54,17.82373
10294.32,17.80371
10300.11,17.80728
10305.9,17.79562
10311.68,17.81232
10317.47,17.73929
10323.25,17.8396
10329.04,17.78486
10334.82,17.7659
10340.61,17.76436
10346.39,17.77187
10352.18,17.76445
10357.96,17.74058
10363.75,17.79478
10369.54,17.71873
10375.32,17.73078
10381.11,17.71593
10386.89,17.71775
10392.68,17.74745
10398.46,17.6748
10404.25,17.72603
10410.03,17.67226
10415.82,17.69238
10421.61,17.66851
10427.39,17.61825
10433.18,17.60836
10438.96,17.56747
10444.75,17.55654
10450.53,17.54203
10456.32,17.55923
10462.1,17.51519
10467.89,17.51606
10473.67,17.46591
10479.46,17.43628
10485.25,17.40756
10491.03,17.36172
10496.82,17.30972
10502.6,17.28483
10508.39,17.27189
10514.17,17.2518
10519.96,17.18522
10525.74,17.11437
10531.53,17.03223
10537.32,16.97738
10543.1,16.97045
10548.89,16.90261
10554.67,16.83743
10560.46,16.76484
10566.24,16.66176
10572.03,16.59377
10577.81,16.49138
10583.6,16.35379
10589.38,16.27322
10595.17,16.21263
10600.96,16.06674
10606.74,15.92446
10612.53,15.8536
10618.31,15.72438
10624.1,15.59128
10629.88,15.44539
10635.67,15.29053
10641.45,15.12233
10647.24,15.02035
10653.03,14.8689
10658.81,14.75244
10664.6,14.58328
10670.38,14.45802
10676.17,14.3088
10681.95,14.20578
10687.74,14.07282
10693.52,14.02217
10699.31,13.94924
10705.09,13.87612
10710.88,13.81442
10716.67,13.8541
10722.45,13.83957
10728.24,13.76114
10734.02,13.85283
10739.81,13.88038
10745.59,13.91905
10751.38,13.94849
10757.16,14.01058
10762.95,14.11349
10768.74,14.12125
10774.52,14.18065
10780.31,14.33833
10786.09,14.40912
10791.88,14.52015
10797.66,14.59417
10803.45,14.77434
10809.23,14.76213
10815.02,14.913
10820.8,14.98551
10826.59,15.05208
10832.38,15.26558
10838.16,15.38799
10843.95,15.48477
10849.73,15.605
10855.52,15.68557
10861.3,15.77242
10867.09,15.8923
10872.87,15.98641
10878.66,16.06842
10884.45,16.20383
10890.23,16.2453
10896.02,16.31815
10901.8,16.47532
10907.59,16.48727
10913.37,16.6452
10919.16,16.68924
10924.94,16.79897
10930.73,16.85353
10936.51,16.98601
10942.3,17.03462
10948.09,17.10603
10953.87,17.20609
10959.66,17.28774
10965.44,17.32312
10971.23,17.29109
10977.01,17.44505
10982.8,17.46233
10988.58,17.57002
10994.37,17.60611
11000.16,17.68966
11005.94,17.64734
11011.73,17.69483
11017.51,17.73552
11023.3,17.84876
11029.08,17.77557
11034.87,17.92108
11040.65,17.94281
11046.44,17.90245
11052.22,17.96622
11058.01,17.98083
11063.79,17.98858
11069.58,18.01936
11075.37,18.00172
11081.15,18.07649
11086.94,18.04894
11092.72,18.09824
11098.51,18.11005
11104.29,18.11982
11110.08,18.11038
11115.87,18.14286
11121.65,18.13269
11127.44,18.06396
11133.22,18.1407
11139.01,18.1842
11144.79,18.21937
11150.58,18.20362
11156.36,18.17555
11162.15,18.22241
11167.93,18.23395
11173.72,18.29045
11179.5,18.37866
11185.29,18.3503
11191.08,18.37078
11196.86,18.41316
11202.65,18.49172
11208.43,18.48519
11214.22,18.58449
11220.0,18.52905
11225.79,18.54737
11231.58,18.67933
11237.36,18.62503
11243.15,18.61358
11248.93,18.64083
11254.72,18.83074
11260.5,18.7376
11266.29,18.74542
11272.07,18.82955
11277.86,18.81617
11283.64,18.74596
11289.43,18.77562
11295.21,18.8548
11301.0,18.83491
11306.79,18.85984
11312.57,18.95402
11318.36,18.85469
11324.14,18.90574
11329.93,18.96104
11335.71,18.98108
11341.5,19.02194
11347.28,18.98093
11353.07,18.99254
11358.86,18.93993
11364.64,19.08849
11370.43,18.99297
11376.21,18.98958
11382.0,18.9844
11387.78,19.07607
11393.57,19.06234
11399.35,18.95045
11405.14,19.01215
11410.92,19.12356
11416.71,19.06512
11422.5,19.12655
11428.28,19.12929
11434.07,19.15901
11439.85,19.20175
11445.64,19.19792
11451.42,19.19886
11457.21,19.22529
11462.99,19.27384
11468.78,19.19939
11474.57,19.27838
11480.35,19.19674
11486.14,19.23478
11491.92,19.18563
11497.71,19.29246
11503.49,19.23281
11509.28,19.30917
11515.06,19.32452
11520.85,19.29613
11526.63,19.28992
11532.42,19.34646
11538.21,19.30497
11543.99,19.38317
11549.78,19.39783
11555.56,19.38691
11561.35,19.36955
11567.13,19.44975
11572.92,19.38063
11578.7,19.46772
11584.49,19.29465
11590.28,19.52421
11596.06,19.39046
11601.85,19.59229
11607.63,19.51462
11613.42,19.31937
11619.2,19.37893
11624.99,19.5345
11630.77,19.49546
11636.56,19.4802
11642.34,19.52718
11648.13,19.53097
11653.92,19.6003
11659.7,19.5283
11665.49,19.49959
11671.27,19.48865
11677.06,19.49743
11682.84,19.56393
11688.63,19.45488
11694.41,19.52241
11700.2,19.3851
11705.99,19.40821
11711.77,19.44373
11717.56,19.47707
11723.34,19.44004
11729.13,19.29399
11734.91,19.55276
11740.7,19.47436
11746.48,19.34014
11752.27,19.42226
11758.05,19.38102
11763.84,19.32329
11769.63,19.34938
11775.41,19.35509
11781.2,19.45142
11786.98,19.53644
11792.77,19.35962
11798.55,19.3662
11804.34,19.28384
11810.12,19.36071
11815.91,19.42419
11821.7,19.40212
11827.48,19.43567
11833.27,19.29893
11839.05,19.40454
11844.84,19.38811
11850.62,19.36156
11856.41,19.34189
11862.19,19.42572
11867.98,19.33934
11873.76,19.35833
11879.55,19.37281
11885.34,19.28062
11891.12,19.32928
11896.91,19.24908
11902.69,19.32664
11908.48,19.25264
11914.26,19.38901
11920.05,19.46905
11925.83,19.34676
11931.62,19.39019
11937.41,19.52714
11943.19,19.42283
11948.98,19.3093
11954.76,19.20699
11960.55,19.32001
11966.33,19.4338
11972.12,19.36783
11977.9,19.2765
11983.69,19.2846
11989.47,19.37588
11995.26,19.22005
11999.12,19.36376