File: Data/NIR/H0007HDPE_1.csv
Wavenumber,Intensity
3999.706,1.963603
4005.491,1.959709
4011.277,1.952504
4017.062,1.939298
4022.848,1.925667
4028.633,1.938027
4034.419,1.935506
4040.204,1.937928
4045.99,1.938548
4051.775,1.932442
4057.561,1.932308
4063.346,1.934559
4069.132,1.931655
4074.917,1.931655
4080.703,1.924559
4086.488,1.921552
4092.274,1.914785
4098.059,1.910386
4103.845,1.91823
4109.63,1.918881
4115.416,1.920684
4121.201,1.915937
4126.987,1.920839
4132.772,1.917612
4138.558,1.921204
4144.343,1.923087
4150.129,1.921337
4155.914,1.927436
4161.7,1.927781
4167.485,1.925869
4173.271,1.93104
4179.056,1.931334
4184.842,1.934032
4190.627,1.93544
4196.413,1.944228
4202.198,1.958904
4207.983,1.965513
4213.769,1.969823
4219.555,1.974428
4225.34,1.978007
4231.125,1.986687
4236.911,1.989597
4242.697,1.980041
4248.482,1.960674
4254.268,1.966429
4260.053,1.987663
4265.838,2.007355
4271.624,2.013579
4277.41,2.019932
4283.195,2.024324
4288.98,2.033208
4294.766,2.039309
4300.552,2.035498
4306.337,2.022631
4312.123,2.00292
4317.908,1.97647
4323.693,1.970639
4329.479,1.975577
4335.265,1.993023
4341.05,1.996939
4346.835,2.014656
4352.621,2.02922
4358.407,2.046377
4364.192,2.062419
4369.978,2.066552
4375.763,2.087164
4381.548,2.102755
4387.334,2.117677
4393.12,2.144716
4398.905,2.168221
4404.69,2.203927
4410.476,2.24274
4416.262,2.278924
4422.047,2.307083
4427.833,2.34059
4433.618,2.363671
4439.403,2.387221
4445.189,2.423178
4450.975,2.467242
4456.76,2.514077
4462.545,2.554776
4468.331,2.596044
4474.116,2.631497
4479.902,2.679291
4485.688,2.715369
4491.473,2.760716
4497.258,2.804427
4503.044,2.855769
4508.83,2.900924
4514.615,2.956173
4520.4,3.002938
4526.186,3.053832
4531.971,3.105241
4537.757,3.153659
4543.542,3.209128
4549.328,3.268098
4555.113,3.321085
4560.899,3.39048
4566.685,3.44923
4572.47,3.494665
4578.255,3.534774
4584.041,3.569679
4589.826,3.597849
4595.612,3.6225
4601.397,3.642058
4607.183,3.664524
4612.968,3.674666
4618.754,3.693855
4624.539,3.72534
4630.325,3.741258
4636.11,3.751926
4641.896,3.761301
4647.681,3.755964
4653.467,3.735271
4659.252,3.68139
4665.038,3.607956
4670.823,3.616675
4676.609,3.700042
4682.394,3.778361
4688.18,3.820099
4693.965,3.829957
4699.751,3.837641
4705.536,3.839253
4711.322,3.825279
4717.107,3.797657
4722.893,3.755709
4728.678,3.714803
4734.464,3.695432
4740.249,3.68199
4746.035,3.657809
4751.82,3.635533
4757.605,3.60656
4763.391,3.570057
4769.177,3.522764
4774.962,3.462929
4780.748,3.432091
4786.533,3.421536
4792.319,3.408378
4798.104,3.393689
4803.89,3.361294
4809.675,3.326954
4815.46,3.283986
4821.246,3.244635
4827.032,3.21731
4832.817,3.191163
4838.603,3.155767
4844.388,3.111903
4850.174,3.06618
4855.959,3.029753
4861.745,2.996992
4867.53,2.977801
4873.315,2.980524
4879.101,2.993617
4884.887,3.008062
4890.672,3.028607
4896.458,3.040163
4902.243,3.050401
4908.028,3.059492
4913.814,3.063779
4919.6,3.065066
4925.385,3.057854
4931.17,3.05679
4936.956,3.057398
4942.742,3.040092
4948.527,3.008003
4954.313,2.950097
4960.098,2.861737
4965.883,2.844585
4971.669,2.880406
4977.455,2.899397
4983.24,2.925293
4989.025,2.958193
4994.811,2.995295
5000.597,3.048111
5006.382,3.087304
5012.167,3.097547
5017.953,3.099511
5023.738,3.112513
5029.524,3.13269
5035.31,3.139965
5041.095,3.141965
5046.88,3.141721
5052.666,3.129535
5058.451,3.10232
5064.237,3.089347
5070.022,3.09252
5075.808,3.095218
5081.593,3.084803
5087.379,3.071733
5093.165,3.067349
5098.95,3.057772
5104.735,3.06573
5110.521,3.077843
5116.307,3.088811
5122.092,3.09776
5127.877,3.110126
5133.663,3.117023
5139.448,3.106052
5145.234,3.089941
5151.02,3.06825
5156.805,3.05642
5162.59,3.048635
5168.376,3.055255
5174.161,3.052567
5179.947,3.049623
5185.732,3.049108
5191.518,3.041693
5197.303,3.065949
5203.089,3.054758
5208.874,3.074633
5214.66,3.046581
5220.445,3.060275
5226.231,3.087855
5232.016,3.081954
5237.802,3.080665
5243.587,3.104584
5249.373,3.123883
5255.158,3.125297
5260.944,3.118072
5266.729,3.123253
5272.515,3.102197
5278.3,3.102337
5284.086,3.119042
5289.871,3.124929
5295.657,3.092272
5301.442,3.072424
5307.228,3.064838
5313.013,3.067756
5318.799,3.132129
5324.584,3.160118
5330.37,3.169206
5336.155,3.157053
5341.94,3.113248
5347.726,3.071238
5353.512,3.038223
5359.297,2.968475
5365.083,2.945507
5370.868,2.902813
5376.654,2.903549
5382.439,2.874163
5388.225,2.861336
5394.01,2.855108
5399.796,2.800654
5405.581,2.774848
5411.367,2.743212
5417.152,2.669957
5422.938,2.649226
5428.723,2.661434
5434.509,2.64713
5440.294,2.640576
5446.08,2.63545
5451.865,2.611483
5457.65,2.60479
5463.436,2.603738
5469.222,2.593703
5475.007,2.584332
5480.792,2.543271
5486.578,2.525892
5492.363,2.529014
5498.149,2.522325
5503.935,2.533888
5509.72,2.54675
5515.505,2.555788
5521.291,2.559035
5527.077,2.55281
5532.862,2.551657
5538.647,2.549494
5544.433,2.537534
5550.219,2.532028
5556.004,2.533854
5561.79,2.544965
5567.575,2.563798
5573.36,2.596326
5579.146,2.63467
5584.932,2.663954
5590.717,2.670516
5596.502,2.659645
5602.288,2.638678
5608.073,2.607476
5613.859,2.572518
5619.645,2.542288
5625.43,2.517217
5631.215,2.492029
5637.001,2.464522
5642.786,2.425997
5648.572,2.366202
5654.357,2.287044
5660.143,2.234288
5665.929,2.229889
5671.714,2.260553
5677.5,2.305062
5683.285,2.337896
5689.07,2.3636
5694.856,2.395824
5700.642,2.44756
5706.427,2.493424
5712.212,2.514996
5717.998,2.504325
5723.783,2.441283
5729.569,2.345582
5735.354,2.326811
5741.14,2.312916
5746.925,2.271984
5752.711,2.24222
5758.496,2.209262
5764.282,2.181006
5770.067,2.156454
5775.853,2.148313
5781.638,2.160905
5787.424,2.180094
5793.209,2.198262
5798.995,2.210451
5804.78,2.227621
5810.566,2.248184
5816.352,2.27107
5822.137,2.291501
5827.922,2.323324
5833.708,2.360352
5839.493,2.405612
5845.279,2.466076
5851.064,2.557788
5856.85,2.695349
5862.635,2.886944
5868.421,3.128715
5874.206,3.380034
5879.992,3.62508
5885.777,3.843113
5891.563,4.020829
5897.348,4.155416
5903.134,4.28
5908.919,4.436162
5914.705,4.613298
5920.49,4.782926
5926.276,4.941577
5932.061,5.103529
5937.847,5.24635
5943.632,5.391677
5949.418,5.524407
5955.203,5.673861
5960.989,5.859248
5966.774,6.087644
5972.56,6.312089
5978.345,6.528632
5984.131,6.725167
5989.916,6.908134
5995.702,7.080458
6001.487,7.246657
6007.272,7.410519
6013.058,7.566861
6018.844,7.720845
6024.629,7.866496
6030.415,7.993825
6036.2,8.118436
6041.985,8.221502
6047.771,8.319626
6053.557,8.417577
6059.342,8.498294
6065.128,8.573011
6070.913,8.645763
6076.698,8.711387
6082.484,8.773652
6088.27,8.823039
6094.055,8.873665
6099.841,8.906731
6105.626,8.937398
6111.412,8.974827
6117.197,9.021619
6122.982,9.072653
6128.768,9.116293
6134.554,9.150605
6140.339,9.193269
6146.125,9.233684
6151.91,9.262856
6157.695,9.298386
6163.481,9.333922
6169.267,9.382812
6175.052,9.424417
6180.837,9.453519
6186.623,9.480471
6192.408,9.495085
6198.194,9.523946
6203.979,9.542166
6209.765,9.568041
6215.551,9.598627
6221.336,9.614745
6227.121,9.639117
6232.907,9.656561
6238.692,9.666149
6244.478,9.670413
6250.264,9.673013
6256.049,9.671535
6261.834,9.680126
6267.62,9.692049
6273.405,9.696231
6279.191,9.701527
6284.977,9.709573
6290.762,9.710985
6296.547,9.711515
6302.333,9.725082
6308.118,9.726296
6313.904,9.725324
6319.689,9.715117
6325.475,9.692897
6331.26,9.672682
6337.046,9.646359
6342.831,9.617474
6348.617,9.581118
6354.402,9.534312
6360.188,9.492482
6365.974,9.43714
6371.759,9.354862
6377.544,9.287663
6383.33,9.256456
6389.115,9.240939
6394.901,9.2183
6400.687,9.161481
6406.472,9.074127
6412.257,8.979467
6418.043,8.902793
6423.828,8.863976
6429.614,8.838775
6435.399,8.797523
6441.185,8.708643
6446.97,8.598688
6452.756,8.476119
6458.541,8.336971
6464.327,8.132644
6470.112,7.812034
6475.897,7.424256
6481.684,7.184892
6487.469,7.214134
6493.254,7.358502
6499.04,7.529024
6504.825,7.659855
6510.61,7.77586
6516.396,7.853473
6522.182,7.91944
6527.967,7.980139
6533.753,8.030806
6539.538,8.070644
6545.324,8.110964
6551.109,8.148076
6556.895,8.176927
6562.68,8.210804
6568.466,8.266165
6574.251,8.313276
6580.037,8.351796
6585.822,8.367244
6591.607,8.378619
6597.393,8.387037
6603.179,8.386098
6608.964,8.383441
6614.75,8.378892
6620.535,8.372619
6626.32,8.355718
6632.106,8.338375
6637.892,8.325055
6643.677,8.292995
6649.463,8.262892
6655.248,8.228853
6661.034,8.196465
6666.819,8.147554
6672.604,8.1204
6678.39,8.062685
6684.176,8.027211
6689.961,7.972247
6695.747,7.914831
6701.532,7.855002
6707.317,7.785066
6713.103,7.710192
6718.889,7.635669
6724.674,7.571892
6730.459,7.514414
6736.245,7.460813
6742.03,7.400452
6747.816,7.339343
6753.602,7.281672
6759.387,7.22027
6765.173,7.167793
6770.958,7.086295
6776.743,7.002535
6782.529,6.887216
6788.314,6.770898
6794.1,6.643532
6799.886,6.517873
6805.671,6.389191
6811.457,6.276008
6817.242,6.154313
6823.027,6.022166
6828.813,5.881307
6834.599,5.764494
6840.384,5.704191
6846.169,5.659087
6851.955,5.604075
6857.74,5.554895
6863.526,5.503943
6869.312,5.446154
6875.097,5.388525
6880.882,5.31771
6886.668,5.231598
6892.453,5.151361
6898.239,5.081215
6904.024,5.034639
6909.81,4.99554
6915.596,4.942306
6921.381,4.872101
6927.166,4.783434
6932.952,4.678678
6938.737,4.55641
6944.523,4.434231
6950.309,4.370401
6956.094,4.356105
6961.879,4.367752
6967.665,4.375111
6973.45,4.394977
6979.236,4.390044
6985.021,4.371704
6990.807,4.344296
6996.592,4.29928
7002.378,4.253096
7008.163,4.182556
7013.949,4.128573
7019.734,4.09488
7025.52,4.081534
7031.305,4.116742
7037.091,4.143194
7042.876,4.150599
7048.662,4.092176
7054.447,3.968393
7060.232,3.817273
7066.019,3.821981
7071.804,4.00263
7077.589,4.214092
7083.375,4.384786
7089.16,4.473345
7094.946,4.539022
7100.731,4.596931
7106.517,4.728253
7112.302,4.837911
7118.088,4.988593
7123.873,5.048561
7129.659,5.075264
7135.444,5.027479
7141.229,4.940373
7147.015,4.79478
7152.801,4.577788
7158.586,4.227306
7164.372,3.747355
7170.157,3.419552
7175.942,3.434114
7181.729,3.765004
7187.514,4.083917
7193.299,4.420464
7199.085,4.725763
7204.87,5.049929
7210.655,5.285996
7216.441,5.504277
7222.227,5.738999
7228.012,6.032489
7233.798,6.342883
7239.583,6.543901
7245.369,6.809548
7251.154,7.044975
7256.939,7.28452
7262.725,7.544838
7268.511,7.764146
7274.296,8.008598
7280.082,8.22279
7285.867,8.4519
7291.652,8.64426
7297.438,8.85963
7303.224,9.058692
7309.009,9.30063
7314.794,9.498156
7320.58,9.672707
7326.365,9.858508
7332.151,9.973326
7337.937,10.07817
7343.722,10.21316
7349.508,10.27964
7355.293,10.37754
7361.079,10.43296
7366.864,10.50656
7372.649,10.55409
7378.435,10.62181
7384.221,10.68132
7390.006,10.71977
7395.792,10.7511
7401.577,10.77769
7407.362,10.80487
7413.148,10.82839
7418.934,10.85314
7424.719,10.86891
7430.504,10.88302
7436.29,10.896
7442.075,10.90687
7447.861,10.92658
7453.646,10.94996
7459.432,10.96142
7465.218,10.97756
7471.003,10.98436
7476.788,10.98482
7482.574,10.98914
7488.359,10.98659
7494.145,10.97761
7499.931,10.97479
7505.716,10.96599
7511.501,10.95144
7517.287,10.9456
7523.072,10.9342
7528.858,10.91424
7534.644,10.90836
7540.429,10.89131
7546.214,10.86201
7552.0,10.8459
7557.785,10.83274
7563.571,10.81326
7569.356,10.79075
7575.142,10.77537
7580.927,10.75571
7586.713,10.72182
7592.498,10.70002
7598.284,10.67612
7604.069,10.65158
7609.854,10.61883
7615.641,10.58361
7621.426,10.54536
7627.211,10.50781
7632.997,10.47024
7638.782,10.42142
7644.568,10.38546
7650.354,10.35459
7656.139,10.32015
7661.924,10.28609
7667.71,10.25451
7673.495,10.22358
7679.281,10.1995
7685.066,10.17851
7690.852,10.1717
7696.637,10.14937
7702.423,10.12039
7708.208,10.09907
7713.994,10.0762
7719.779,10.05374
7725.564,10.03111
7731.35,9.99692
7737.136,9.988742
7742.921,9.978177
7748.707,9.949314
7754.492,9.926565
7760.277,9.883596
7766.063,9.849962
7771.849,9.824335
7777.634,9.801725
7783.42,9.793048
7789.205,9.777726
7794.991,9.765944
7800.776,9.737379
7806.562,9.70049
7812.347,9.67793
7818.133,9.650318
7823.918,9.622253
7829.704,9.59065
7835.489,9.555627
7841.274,9.524319
7847.06,9.490756
7852.846,9.451747
7858.631,9.389816
7864.417,9.34274
7870.202,9.299568
7875.987,9.243385
7881.773,9.189233
7887.559,9.136924
7893.344,9.076138
7899.13,9.017671
7904.915,8.946349
7910.7,8.891598
7916.486,8.818672
7922.271,8.763166
7928.057,8.683167
7933.843,8.618032
7939.628,8.537768
7945.414,8.460047
7951.199,8.383697
7956.984,8.290967
7962.77,8.197334
7968.556,8.120048
7974.341,8.02344
7980.126,7.932174
7985.912,7.837073
7991.697,7.735684
7997.483,7.651252
8003.269,7.540572
8009.054,7.435118
8014.839,7.332995
8020.625,7.211044
8026.41,7.102509
8032.196,6.974959
8037.981,6.857881
8043.767,6.739783
8049.553,6.595328
8055.338,6.463469
8061.124,6.34004
8066.909,6.206388
8072.694,6.075191
8078.48,5.924293
8084.266,5.795548
8090.051,5.654543
8095.836,5.524555
8101.622,5.382909
8107.407,5.231988
8113.192,5.087862
8118.979,4.917763
8124.764,4.779057
8130.55,4.612998
8136.335,4.477355
8142.12,4.322992
8147.906,4.167759
8153.691,4.024926
8159.477,3.890451
8165.263,3.747477
8171.048,3.614072
8176.833,3.469313
8182.619,3.372809
8188.404,3.271024
8194.189,3.182469
8199.976,3.119748
8205.761,3.064089
8211.546,3.027312
8217.332,3.005711
8223.117,3.006489
8228.902,3.012776
8234.688,3.028029
8240.474,3.045501
8246.259,3.04735
8252.045,3.064106
8257.83,3.086484
8263.616,3.12461
8269.401,3.180347
8275.187,3.231234
8280.973,3.29438
8286.758,3.381981
8292.543,3.470113
8298.329,3.564064
8304.114,3.646105
8309.899,3.745147
8315.686,3.851576
8321.471,3.929126
8327.256,4.039516
8333.042,4.1401
8338.827,4.25146
8344.612,4.370712
8350.398,4.522057
8356.184,4.658207
8361.969,4.80219
8367.755,4.948225
8373.54,5.089866
8379.325,5.224454
8385.111,5.355321
8390.896,5.447261
8396.683,5.519763
8402.468,5.539161
8408.253,5.546232
8414.039,5.518414
8419.824,5.495841
8425.609,5.504089
8431.396,5.555555
8437.181,5.657875
8442.966,5.821242
8448.752,5.995636
8454.537,6.164557
8460.322,6.302191
8466.108,6.427092
8471.894,6.526627
8477.679,6.670348
8483.465,6.831789
8489.25,6.996307
8495.035,7.123558
8500.821,7.200409
8506.606,7.259051
8512.392,7.279547
8518.178,7.332056
8523.963,7.412864
8529.748,7.45448
8535.534,7.468626
8541.319,7.405227
8547.105,7.284161
8552.891,7.113282
8558.676,6.896008
8564.462,6.772715
8570.247,6.870626
8576.032,7.085292
8581.818,7.325437
8587.604,7.5747
8593.389,7.882091
8599.175,8.154386
8604.96,8.454081
8610.745,8.731001
8616.531,8.963836
8622.316,9.199158
8628.102,9.400331
8633.888,9.566477
8639.673,9.723716
8645.458,9.879537
8651.244,10.01183
8657.029,10.13715
8662.814,10.24334
8668.601,10.33789
8674.386,10.4514
8680.172,10.55595
8685.957,10.64464
8691.742,10.75573
8697.528,10.87753
8703.313,10.9983
8709.099,11.11373
8714.885,11.23022
8720.67,11.3386
8726.455,11.44838
8732.241,11.58118
8738.026,11.67721
8743.812,11.78866
8749.598,11.89243
8755.383,11.99079
8761.168,12.06468
8766.954,12.14711
8772.739,12.20704
8778.524,12.28699
8784.311,12.32841
8790.096,12.38806
8795.881,12.42595
8801.667,12.46079
8807.452,12.50168
8813.237,12.54538
8819.023,12.54989
8824.809,12.57328
8830.595,12.59517
8836.38,12.61298
8842.165,12.61871
8847.951,12.63676
8853.736,12.65999
8859.521,12.66267
8865.308,12.67565
8871.093,12.67233
8876.878,12.66071
8882.664,12.68166
8888.449,12.66083
8894.234,12.66401
8900.021,12.69662
8905.806,12.67686
8911.591,12.66468
8917.377,12.64198
8923.162,12.64069
8928.947,12.6471
8934.733,12.61528
8940.519,12.61968
8946.304,12.61432
8952.09,12.63531
8957.875,12.60105
8963.661,12.61724
8969.446,12.61504
8975.231,12.60643
8981.018,12.6202
8986.803,12.62789
8992.588,12.63516
8998.374,12.63169
9004.159,12.66112
9009.944,12.65847
9015.73,12.67484
9021.516,12.6932
9027.301,12.70136
9033.087,12.70734
9038.872,12.7081
9044.657,12.71433
9050.443,12.73732
9056.229,12.73228
9062.014,12.74843
9067.8,12.74524
9073.585,12.7464
9079.37,12.76322
9085.156,12.75858
9090.941,12.74661
9096.727,12.7511
9102.513,12.77366
9108.298,12.75727
9114.084,12.76132
9119.869,12.74717
9125.654,12.74457
9131.44,12.7393
9137.226,12.73044
9143.011,12.70155
9148.797,12.7255
9154.582,12.70978
9160.367,12.71065
9166.153,12.69201
9171.938,12.66558
9177.724,12.65205
9183.51,12.64298
9189.295,12.62112
9195.08,12.614
9200.866,12.59986
9206.651,12.60063
9212.437,12.59802
9218.223,12.57223
9224.008,12.5513
9229.793,12.56393
9235.579,12.54844
9241.364,12.54461
9247.15,12.54666
9252.936,12.53796
9258.721,12.50968
9264.507,12.50226
9270.292,12.49588
9276.077,12.49076
9281.863,12.47677
9287.648,12.44001
9293.434,12.45472
9299.22,12.45396
9305.005,12.4548
9310.79,12.45936
9316.576,12.46248
9322.361,12.4588
9328.146,12.46638
9333.933,12.4433
9339.718,12.46091
9345.503,12.44302
9351.289,12.45007
9357.074,12.4083
9362.859,12.39935
9368.646,12.40669
9374.431,12.35843
9380.217,12.35304
9386.002,12.33169
9391.787,12.29918
9397.573,12.2787
9403.358,12.27573
9409.144,12.24067
9414.93,12.22327
9420.715,12.2008
9426.5,12.1637
9432.286,12.1377
9438.071,12.11946
9443.856,12.08623
9449.643,12.04184
9455.428,12.01742
9461.213,11.97862
9466.999,11.95303
9472.784,11.93057
9478.569,11.92228
9484.355,11.90832
9490.141,11.88231
9495.926,11.86813
9501.712,11.85952
9507.497,11.83621
9513.282,11.82562
9519.068,11.8126
9524.854,11.80375
9530.64,11.78881
9536.425,11.7526
9542.21,11.74055
9547.996,11.70816
9553.781,11.68406
9559.566,11.65821
9565.353,11.62703
9571.138,11.57474
9576.923,11.60962
9582.709,11.55716
9588.494,11.55772
9594.279,11.55724
9600.065,11.55138
9605.851,11.54758
9611.636,11.59058
9617.422,11.61774
9623.207,11.64785
9628.992,11.65746
9634.778,11.71073
9640.563,11.73131
9646.349,11.77063
9652.135,11.81268
9657.92,11.86169
9663.706,11.90868
9669.491,11.95086
9675.276,12.00531
9681.063,12.00872
9686.848,12.07098
9692.633,12.08211
9698.419,12.11802
9704.204,12.1412
9709.989,12.19359
9715.775,12.27754
9721.561,12.28199
9727.346,12.34011
9733.132,12.39359
9738.917,12.41345
9744.702,12.44205
9750.488,12.48499
9756.273,12.5117
9762.059,12.53799
9767.845,12.52426
9773.63,12.51993
9779.415,12.55756
9785.201,12.54213
9790.986,12.58051
9796.771,12.57601
9802.558,12.56535
9808.343,12.54918
9814.129,12.52947
9819.914,12.53969
9825.699,12.5365
9831.485,12.56153
9837.271,12.59112
9843.056,12.62239
9848.842,12.64204
9854.627,12.67052
9860.412,12.72717
9866.198,12.77952
9871.983,12.83337
9877.769,12.87623
9883.555,12.92852
9889.34,12.96975
9895.125,13.01397
9900.911,13.01408
9906.696,13.07384
9912.481,13.08896
9918.268,13.12973
9924.053,13.14151
9929.838,13.16357
9935.624,13.173
9941.409,13.22813
9947.195,13.26145
9952.98,13.27134
9958.766,13.29716
9964.552,13.34206
9970.337,13.37652
9976.122,13.39658
9981.908,13.38881
9987.693,13.39332
9993.479,13.44107
9999.265,13.454
10005.05,13.45403
10010.83,13.4491
10016.62,13.49929
10022.41,13.4884
10028.19,13.50192
10033.98,13.54702
10039.76,13.55685
10045.55,13.58331
10051.33,13.60156
10057.12,13.62372
10062.9,13.62705
10068.69,13.63451
10074.48,13.66906
10080.26,13.65938
10086.05,13.69499
10091.83,13.67941
10097.62,13.6545
10103.4,13.70249
10109.19,13.70932
10114.97,13.69897
10120.76,13.72217
10126.54,13.74893
10132.33,13.72312
10138.12,13.77192
10143.9,13.75302
10149.69,13.7279
10155.47,13.73472
10161.26,13.75161
10167.04,13.7479
10172.83,13.74599
10178.61,13.71355
10184.4,13.7493
10190.19,13.74322
10195.97,13.74589
10201.76,13.74075
10207.54,13.75187
10213.33,13.75157
10219.11,13.78513
10224.9,13.75136
10230.68,13.74073
10236.47,13.74413
10242.25,13.72185
10248.04,13.68226
10253.83,13.70771
10259.61,13.71358
10265.4,13.70905
10271.18,13.7143
10276.97,13.69967
10282.75,13.66957
10288.54,13.6806
10294.32,13.68024
10300.11,13.68426
10305.9,13.69812
10311.68,13.64317
10317.47,13.65749
10323.25,13.66154
10329.04,13.67074
10334.82,13.65439
10340.61,13.6446
10346.39,13.63756
10352.18,13.63103
10357.96,13.66194
10363.75,13.63312
10369.54,13.59545
10375.32,13.5837
10381.11,13.6249
10386.89,13.58136
10392.68,13.55386
10398.46,13.56933
10404.25,13.61416
10410.03,13.52185
10415.82,13.51794
10421.61,13.56705
10427.39,13.50013
10433.18,13.47405
10438.96,13.47024
10444.75,13.49888
10450.53,13.40016
10456.32,13.43007
10462.1,13.39466
10467.89,13.36217
10473.67,13.32832
10479.46,13.32786
10485.25,13.31799
10491.03,13.31281
10496.82,13.19764
10502.6,13.16619
10508.39,13.17065
10514.17,13.10951
10519.96,13.0512
10525.74,13.03074
10531.53,12.97013
10537.32,12.89918
10543.1,12.88083
10548.89,12.77452
10554.67,12.74612
10560.46,12.68858
10566.24,12.60328
10572.03,12.50242
10577.81,12.35612
10583.6,12.29584
10589.38,12.24574
10595.17,12.17054
10600.96,12.02713
10606.74,11.90867
10612.53,11.80344
10618.31,11.69675
10624.1,11.57524
10629.88,11.44495
10635.67,11.30057
10641.45,11.16925
10647.24,11.07416
10653.03,10.94753
10658.81,10.79323
10664.6,10.66537
10670.38,10.56981
10676.17,10.40632
10681.95,10.3615
10687.74,10.21095
10693.52,10.18782
10699.31,10.0781
10705.09,10.05468
10710.88,10.03733
10716.67,9.961183
10722.45,9.977957
10728.24,10.00127
10734.02,9.995424
10739.81,10.01159
10745.59,9.995143
10751.38,10.12057
10757.16,10.13334
10762.95,10.20299
10768.74,10.28665
10774.52,10.32168
10780.31,10.42007
10786.09,10.47481
10791.88,10.58463
10797.66,10.70044
10803.45,10.77217
10809.23,10.88805
10815.02,10.99453
10820.8,11.02337
10826.59,11.10972
10832.38,11.23745
10838.16,11.35091
10843.95,11.47412
10849.73,11.51503
10855.52,11.57781
10861.3,11.72857
10867.09,11.83135
10872.87,11.94706
10878.66,12.05973
10884.45,12.11874
10890.23,12.12627
10896.02,12.21579
10901.8,12.31805
10907.59,12.45444
10913.37,12.53768
10919.16,12.55814
10924.94,12.69314
10930.73,12.65269
10936.51,12.83835
10942.3,12.80639
10948.09,12.92885
10953.87,12.99047
10959.66,13.08153
10965.44,13.1766
10971.23,13.23652
10977.01,13.17051
10982.8,13.27769
10988.58,13.35256
10994.37,13.35812
11000.16,13.38038
11005.94,13.52163
11011.73,13.54771
11017.51,13.54404
11023.3,13.59328
11029.08,13.61077
11034.87,13.64922
11040.65,13.72443
11046.44,13.68449
11052.22,13.71776
11058.01,13.79868
11063.79,13.75491
11069.58,13.7681
11075.37,13.81472
11081.15,13.85296
11086.94,13.81557
11092.72,13.79
11098.51,13.82245
11104.29,13.87358
11110.08,13.86664
11115.87,13.85258
11121.65,13.83947
11127.44,13.80912
11133.22,13.78582
11139.01,13.81196
11144.79,13.9531
11150.58,13.94783
11156.36,14.0068
11162.15,14.02991
11167.93,13.98349
11173.72,14.00064
11179.5,14.06152
11185.29,14.07352
11191.08,14.11033
11196.86,14.1712
11202.65,14.14144
11208.43,14.28355
11214.22,14.3236
11220.0,14.29244
11225.79,14.30243
11231.58,14.28231
11237.36,14.36566
11243.15,14.38455
11248.93,14.47095
11254.72,14.44546
11260.5,14.43398
11266.29,14.43887
11272.07,14.42364
11277.86,14.52035
11283.64,14.55105
11289.43,14.53444
11295.21,14.51886
11301.0,14.55864
11306.79,14.625
11312.57,14.57808
11318.36,14.55013
11324.14,14.58631
11329.93,14.66481
11335.71,14.59702
11341.5,14.64065
11347.28,14.65439
11353.07,14.76944
11358.86,14.67858
11364.64,14.67382
11370.43,14.6292
11376.21,14.6923
11382.0,14.74409
11387.78,14.76824
11393.57,14.79699
11399.35,14.73978
11405.14,14.76837
11410.92,14.77948
11416.71,14.80574
11422.5,14.71117
11428.28,14.86577
11434.07,14.81983
11439.85,14.87689
11445.64,14.79673
11451.42,14.91343
11457.21,14.86242
11462.99,14.88801
11468.78,14.93072
11474.57,14.88857
11480.35,14.97039
11486.14,14.84597
11491.92,14.96518
11497.71,14.88941
11503.49,14.94347
11509.28,14.96768
11515.06,14.95977
11520.85,14.94098
11526.63,15.02392
11532.42,14.99922
11538.21,14.99131
11543.99,14.97466
11549.78,14.96174
11555.56,14.941
11561.35,14.95702
11567.13,15.0098
11572.92,15.07335
11578.7,15.08614
11584.49,15.14689
11590.28,15.04552
11596.06,15.08133
11601.85,15.06983
11607.63,14.97918
11613.42,15.1318
11619.2,15.08498
11624.99,15.19435
11630.77,15.04996
11636.56,15.1489
11642.34,15.02537
11648.13,15.13169
11653.92,15.11
11659.7,15.25511
11665.49,15.0187
11671.27,15.19582
11677.06,15.15208
11682.84,15.11576
11688.63,15.06164
11694.41,15.16537
11700.2,15.0957
11705.99,15.17992
11711.77,15.08482
11717.56,15.23553
11723.34,15.12201
11729.13,15.04206
11734.91,15.0821
11740.7,15.16259
11746.48,15.18141
11752.27,15.17331
11758.05,15.13231
11763.84,15.24064
11769.63,15.10996
11775.41,15.20108
11781.2,15.07913
11786.98,14.98552
11792.77,15.01104
11798.55,15.06187
11804.34,15.03626
11810.12,15.12918
11815.91,15.09381
11821.7,15.03066
11827.48,15.09249
11833.27,15.20405
11839.05,15.05373
11844.84,15.06148
11850.62,15.07774
11856.41,15.12249
11862.19,15.14792
11867.98,15.21077
11873.76,15.09035
11879.55,15.11037
11885.34,15.0439
11891.12,15.2154
11896.91,15.2221
11902.69,15.1237
11908.48,15.20536
11914.26,15.04464
11920.05,15.3013
11925.83,15.26492
11931.62,15.21805
11937.41,15.20641
11943.19,15.06289
11948.98,15.36393
11954.76,15.2062
11960.55,15.14207
11966.33,15.09342
11972.12,15.06153
11977.9,15.11509
11983.69,15.1074
11989.47,15.20369
11995.26,14.99577
11999.12,15.18032