File: Data/NIR/H0003LDPE_3.csv
Wavenumber,Intensity
3999.706,2.623198
4005.491,2.625984
4011.277,2.63216
4017.062,2.637676
4022.848,2.63219
4028.633,2.642055
4034.419,2.643552
4040.204,2.646873
4045.99,2.640823
4051.775,2.650975
4057.561,2.652397
4063.346,2.652793
4069.132,2.651756
4074.917,2.657733
4080.703,2.655449
4086.488,2.662789
4092.274,2.658468
4098.059,2.65976
4103.845,2.663538
4109.63,2.663356
4115.416,2.664569
4121.201,2.668073
4126.987,2.667434
4132.772,2.66468
4138.558,2.669908
4144.343,2.671499
4150.129,2.670823
4155.914,2.674255
4161.7,2.676715
4167.485,2.675962
4173.271,2.682439
4179.056,2.6858
4184.842,2.68887
4190.627,2.692831
4196.413,2.70046
4202.198,2.70966
4207.983,2.714335
4213.769,2.719465
4219.555,2.727004
4225.34,2.732332
4231.125,2.736744
4236.911,2.740846
4242.697,2.742927
4248.482,2.736494
4254.268,2.739663
4260.053,2.744423
4265.838,2.755115
4271.624,2.762819
4277.41,2.760777
4283.195,2.762731
4288.98,2.770827
4294.766,2.771909
4300.552,2.774963
4306.337,2.768985
4312.123,2.770392
4317.908,2.760023
4323.693,2.754126
4329.479,2.759841
4335.265,2.763711
4341.05,2.766632
4346.835,2.775954
4352.621,2.775402
4358.407,2.780848
4364.192,2.784523
4369.978,2.779561
4375.763,2.787561
4381.548,2.789201
4387.334,2.790955
4393.12,2.791969
4398.905,2.793944
4404.69,2.799791
4410.476,2.805259
4416.262,2.820009
4422.047,2.830363
4427.833,2.857065
4433.618,2.877416
4439.403,2.910859
4445.189,2.940092
4450.975,2.981872
4456.76,3.024553
4462.545,3.060872
4468.331,3.105654
4474.116,3.138626
4479.902,3.188676
4485.688,3.225486
4491.473,3.2682
4497.258,3.313582
4503.044,3.360464
4508.83,3.407646
4514.615,3.458575
4520.4,3.503485
4526.186,3.553393
4531.971,3.605341
4537.757,3.657596
4543.542,3.711022
4549.328,3.762587
4555.113,3.820812
4560.899,3.878232
4566.685,3.932334
4572.47,3.974554
4578.255,4.014286
4584.041,4.053509
4589.826,4.085271
4595.612,4.114789
4601.397,4.141181
4607.183,4.165653
4612.968,4.184095
4618.754,4.209639
4624.539,4.237824
4630.325,4.253898
4636.11,4.266633
4641.896,4.279431
4647.681,4.278311
4653.467,4.267641
4659.252,4.237133
4665.038,4.197042
4670.823,4.212744
4676.609,4.275702
4682.394,4.321724
4688.18,4.35102
4693.965,4.359597
4699.751,4.360805
4705.536,4.36632
4711.322,4.357143
4717.107,4.340983
4722.893,4.312859
4728.678,4.286637
4734.464,4.27114
4740.249,4.262989
4746.035,4.247931
4751.82,4.229058
4757.605,4.210068
4763.391,4.187284
4769.177,4.154495
4774.962,4.115483
4780.748,4.0925
4786.533,4.081851
4792.319,4.070617
4798.104,4.057546
4803.89,4.033539
4809.675,4.004244
4815.46,3.965696
4821.246,3.933805
4827.032,3.904293
4832.817,3.877265
4838.603,3.842904
4844.388,3.80377
4850.174,3.757298
4855.959,3.719087
4861.745,3.686887
4867.53,3.669231
4873.315,3.667521
4879.101,3.673576
4884.887,3.686213
4890.672,3.70575
4896.458,3.7121
4902.243,3.720077
4908.028,3.726674
4913.814,3.730316
4919.6,3.728349
4925.385,3.726406
4931.17,3.722542
4936.956,3.724289
4942.742,3.707764
4948.527,3.679222
4954.313,3.625826
4960.098,3.547617
4965.883,3.518718
4971.669,3.540611
4977.455,3.55385
4983.24,3.578069
4989.025,3.610029
4994.811,3.644
5000.597,3.688587
5006.382,3.711003
5012.167,3.725831
5017.953,3.731418
5023.738,3.742625
5029.524,3.756932
5035.31,3.768239
5041.095,3.770949
5046.88,3.773744
5052.666,3.762118
5058.451,3.747546
5064.237,3.736128
5070.022,3.738978
5075.808,3.738792
5081.593,3.734179
5087.379,3.726184
5093.165,3.715969
5098.95,3.712154
5104.735,3.712872
5110.521,3.725613
5116.307,3.732061
5122.092,3.742625
5127.877,3.75396
5133.663,3.755419
5139.448,3.75297
5145.234,3.740967
5151.02,3.724944
5156.805,3.714772
5162.59,3.712664
5168.376,3.714333
5174.161,3.707239
5179.947,3.701912
5185.732,3.698068
5191.518,3.695746
5197.303,3.705601
5203.089,3.714122
5208.874,3.702378
5214.66,3.705196
5220.445,3.702114
5226.231,3.709004
5232.016,3.719193
5237.802,3.721703
5243.587,3.739566
5249.373,3.727832
5255.158,3.739584
5260.944,3.752812
5266.729,3.743725
5272.515,3.731167
5278.3,3.734859
5284.086,3.743021
5289.871,3.745563
5295.657,3.728272
5301.442,3.715125
5307.228,3.713845
5313.013,3.712316
5318.799,3.743189
5324.584,3.772826
5330.37,3.77255
5336.155,3.780121
5341.94,3.742652
5347.726,3.690875
5353.512,3.662104
5359.297,3.618013
5365.083,3.587357
5370.868,3.558601
5376.654,3.536608
5382.439,3.518294
5388.225,3.487986
5394.01,3.471634
5399.796,3.433067
5405.581,3.399544
5411.367,3.368396
5417.152,3.313867
5422.938,3.294402
5428.723,3.289067
5434.509,3.27423
5440.294,3.270688
5446.08,3.248967
5451.865,3.234229
5457.65,3.231586
5463.436,3.223072
5469.222,3.20992
5475.007,3.202998
5480.792,3.175448
5486.578,3.171188
5492.363,3.165084
5498.149,3.155074
5503.935,3.164999
5509.72,3.164695
5515.505,3.174213
5521.291,3.174116
5527.077,3.174145
5532.862,3.172864
5538.647,3.166325
5544.433,3.16253
5550.219,3.159064
5556.004,3.157805
5561.79,3.170146
5567.575,3.183159
5573.36,3.202482
5579.146,3.225669
5584.932,3.243566
5590.717,3.248832
5596.502,3.241886
5602.288,3.226551
5608.073,3.199755
5613.859,3.174417
5619.645,3.150465
5625.43,3.125337
5631.215,3.107114
5637.001,3.08992
5642.786,3.061689
5648.572,3.026064
5654.357,2.99273
5660.143,2.976962
5665.929,2.974411
5671.714,2.983167
5677.5,2.991059
5683.285,3.007938
5689.07,3.021835
5694.856,3.038965
5700.642,3.068147
5706.427,3.093138
5712.212,3.114463
5717.998,3.115105
5723.783,3.093538
5729.569,3.047107
5735.354,3.034999
5741.14,3.019247
5746.925,2.996994
5752.711,2.986573
5758.496,2.97352
5764.282,2.969989
5770.067,2.963963
5775.853,2.961489
5781.638,2.967439
5787.424,2.968553
5793.209,2.973471
5798.995,2.974563
5804.78,2.978145
5810.566,2.982704
5816.352,2.989287
5822.137,2.997565
5827.922,3.008354
5833.708,3.0233
5839.493,3.042639
5845.279,3.072062
5851.064,3.112436
5856.85,3.174682
5862.635,3.267378
5868.421,3.390384
5874.206,3.540007
5879.992,3.72487
5885.777,3.909729
5891.563,4.078157
5897.348,4.193704
5903.134,4.293061
5908.919,4.431265
5914.705,4.624377
5920.49,4.873163
5926.276,5.153678
5932.061,5.429224
5937.847,5.674854
5943.632,5.890967
5949.418,6.083735
5955.203,6.268667
5960.989,6.450873
5966.774,6.640098
5972.56,6.816723
5978.345,6.986219
5984.131,7.13665
5989.916,7.280362
5995.702,7.417615
6001.487,7.538851
6007.272,7.663417
6013.058,7.779952
6018.844,7.889493
6024.629,7.996182
6030.415,8.084999
6036.2,8.17349
6041.985,8.249411
6047.771,8.324644
6053.557,8.394601
6059.342,8.456673
6065.128,8.513758
6070.913,8.569896
6076.698,8.614285
6082.484,8.659365
6088.27,8.693196
6094.055,8.726406
6099.841,8.752586
6105.626,8.782458
6111.412,8.812018
6117.197,8.842788
6122.982,8.879232
6128.768,8.927478
6134.554,8.974717
6140.339,9.025539
6146.125,9.07018
6151.91,9.118962
6157.695,9.164136
6163.481,9.211338
6169.267,9.258391
6175.052,9.305055
6180.837,9.344296
6186.623,9.377087
6192.408,9.40134
6198.194,9.434844
6203.979,9.45816
6209.765,9.481442
6215.551,9.508231
6221.336,9.52342
6227.121,9.542351
6232.907,9.568785
6238.692,9.569651
6244.478,9.583034
6250.264,9.5954
6256.049,9.603269
6261.834,9.610525
6267.62,9.617373
6273.405,9.625509
6279.191,9.63408
6284.977,9.63967
6290.762,9.643353
6296.547,9.643333
6302.333,9.654483
6308.118,9.658266
6313.904,9.655179
6319.689,9.649506
6325.475,9.644859
6331.26,9.635575
6337.046,9.621227
6342.831,9.607124
6348.617,9.586401
6354.402,9.56078
6360.188,9.5365
6365.974,9.502403
6371.759,9.458257
6377.544,9.421639
6383.33,9.403089
6389.115,9.382536
6394.901,9.368997
6400.687,9.331211
6406.472,9.289283
6412.257,9.23271
6418.043,9.183221
6423.828,9.148643
6429.614,9.126198
6435.399,9.09564
6441.185,9.038988
6446.97,8.972367
6452.756,8.891753
6458.541,8.78856
6464.327,8.638099
6470.112,8.419251
6475.897,8.171664
6481.684,8.018801
6487.469,8.019109
6493.254,8.093383
6499.04,8.169488
6504.825,8.237309
6510.61,8.301952
6516.396,8.346331
6522.182,8.376794
6527.967,8.414112
6533.753,8.437836
6539.538,8.461647
6545.324,8.481354
6551.109,8.499559
6556.895,8.515925
6562.68,8.530031
6568.466,8.55991
6574.251,8.584762
6580.037,8.60828
6585.822,8.613546
6591.607,8.619933
6597.393,8.622811
6603.179,8.625312
6608.964,8.621387
6614.75,8.611602
6620.535,8.604036
6626.32,8.590642
6632.106,8.572886
6637.892,8.552536
6643.677,8.532485
6649.463,8.511266
6655.248,8.481807
6661.034,8.45444
6666.819,8.414257
6672.604,8.395186
6678.39,8.348175
6684.176,8.318464
6689.961,8.272289
6695.747,8.22538
6701.532,8.178498
6707.317,8.13409
6713.103,8.077538
6718.889,8.017265
6724.674,7.977896
6730.459,7.923049
6736.245,7.877166
6742.03,7.827101
6747.816,7.768734
6753.602,7.724167
6759.387,7.668315
6765.173,7.625202
6770.958,7.555756
6776.743,7.484375
6782.529,7.400364
6788.314,7.319297
6794.1,7.22421
6799.886,7.130334
6805.671,7.025984
6811.457,6.937961
6817.242,6.840613
6823.027,6.743812
6828.813,6.642965
6834.599,6.55477
6840.384,6.501044
6846.169,6.455085
6851.955,6.404069
6857.74,6.345668
6863.526,6.298668
6869.312,6.236505
6875.097,6.176847
6880.882,6.111087
6886.668,6.027633
6892.453,5.954486
6898.239,5.887145
6904.024,5.827879
6909.81,5.778893
6915.596,5.73419
6921.381,5.65439
6927.166,5.581901
6932.952,5.487046
6938.737,5.38349
6944.523,5.29517
6950.309,5.230617
6956.094,5.206427
6961.879,5.2007
6967.665,5.189489
6973.45,5.192274
6979.236,5.176408
6985.021,5.166799
6990.807,5.140731
6996.592,5.115272
7002.378,5.075266
7008.163,5.029761
7013.949,4.984056
7019.734,4.950922
7025.52,4.924615
7031.305,4.941152
7037.091,4.936813
7042.876,4.931007
7048.662,4.865024
7054.447,4.768435
7060.232,4.662715
7066.019,4.656594
7071.804,4.751129
7077.589,4.896174
7083.375,5.021621
7089.16,5.109859
7094.946,5.189575
7100.731,5.261951
7106.517,5.375003
7112.302,5.473092
7118.088,5.575216
7123.873,5.653553
7129.659,5.681559
7135.444,5.663277
7141.229,5.584563
7147.015,5.463605
7152.801,5.284282
7158.586,5.006076
7164.372,4.612641
7170.157,4.316234
7175.942,4.32127
7181.729,4.514771
7187.514,4.745294
7193.299,4.997874
7199.085,5.241958
7204.87,5.486959
7210.655,5.725194
7216.441,5.932139
7222.227,6.145471
7228.012,6.378759
7233.798,6.568693
7239.583,6.795751
7245.369,6.945615
7251.154,7.158573
7256.939,7.329508
7262.725,7.515141
7268.511,7.695796
7274.296,7.885818
7280.082,8.06491
7285.867,8.256177
7291.652,8.426567
7297.438,8.594368
7303.224,8.738069
7309.009,8.912106
7314.794,9.068809
7320.58,9.209214
7326.365,9.351533
7332.151,9.408942
7337.937,9.526614
7343.722,9.556725
7349.508,9.611211
7355.293,9.708972
7361.079,9.797929
7366.864,9.904389
7372.649,9.991612
7378.435,10.08214
7384.221,10.15311
7390.006,10.21951
7395.792,10.27024
7401.577,10.31223
7407.362,10.34513
7413.148,10.38379
7418.934,10.40467
7424.719,10.42847
7430.504,10.442
7436.29,10.4556
7442.075,10.46459
7447.861,10.48349
7453.646,10.49994
7459.432,10.51612
7465.218,10.51533
7471.003,10.52265
7476.788,10.52475
7482.574,10.53112
7488.359,10.53661
7494.145,10.5351
7499.931,10.52466
7505.716,10.52161
7511.501,10.51404
7517.287,10.51388
7523.072,10.51194
7528.858,10.49981
7534.644,10.49749
7540.429,10.49206
7546.214,10.4774
7552.0,10.4604
7557.785,10.44973
7563.571,10.44952
7569.356,10.42774
7575.142,10.41493
7580.927,10.40214
7586.713,10.38881
7592.498,10.37376
7598.284,10.34954
7604.069,10.34094
7609.854,10.31417
7615.641,10.29412
7621.426,10.26511
7627.211,10.2379
7632.997,10.22052
7638.782,10.18598
7644.568,10.16482
7650.354,10.14577
7656.139,10.11654
7661.924,10.09753
7667.71,10.07483
7673.495,10.05353
7679.281,10.03668
7685.066,10.01655
7690.852,10.00195
7696.637,9.997108
7702.423,9.974631
7708.208,9.947581
7713.994,9.939088
7719.779,9.916106
7725.564,9.899928
7731.35,9.868832
7737.136,9.863209
7742.921,9.846253
7748.707,9.828739
7754.492,9.799049
7760.277,9.774919
7766.063,9.75513
7771.849,9.735684
7777.634,9.713805
7783.42,9.709908
7789.205,9.689898
7794.991,9.672362
7800.776,9.650831
7806.562,9.62356
7812.347,9.605733
7818.133,9.57954
7823.918,9.554608
7829.704,9.530141
7835.489,9.502505
7841.274,9.475441
7847.06,9.450944
7852.846,9.420765
7858.631,9.371662
7864.417,9.332598
7870.202,9.312921
7875.987,9.262802
7881.773,9.216011
7887.559,9.190404
7893.344,9.137535
7899.13,9.126162
7904.915,9.037322
7910.7,8.991783
7916.486,8.944577
7922.271,8.887732
7928.057,8.835604
7933.843,8.77916
7939.628,8.719158
7945.414,8.650535
7951.199,8.587147
7956.984,8.52356
7962.77,8.450592
7968.556,8.390644
7974.341,8.309037
7980.126,8.239025
7985.912,8.152431
7991.697,8.078461
7997.483,8.000962
8003.269,7.906448
8009.054,7.834526
8014.839,7.73636
8020.625,7.637263
8026.41,7.545838
8032.196,7.438751
8037.981,7.346756
8043.767,7.254603
8049.553,7.133565
8055.338,7.026817
8061.124,6.914741
8066.909,6.795963
8072.694,6.680851
8078.48,6.556755
8084.266,6.438617
8090.051,6.298825
8095.836,6.18699
8101.622,6.053358
8107.407,5.917731
8113.192,5.776668
8118.979,5.636935
8124.764,5.489085
8130.55,5.349729
8136.335,5.19255
8142.12,5.051459
8147.906,4.892165
8153.691,4.755522
8159.477,4.616817
8165.263,4.471238
8171.048,4.332983
8176.833,4.204447
8182.619,4.087053
8188.404,3.98005
8194.189,3.897776
8199.976,3.82282
8205.761,3.770037
8211.546,3.732687
8217.332,3.703237
8223.117,3.704678
8228.902,3.687356
8234.688,3.688944
8240.474,3.704021
8246.259,3.709925
8252.045,3.72328
8257.83,3.752794
8263.616,3.770292
8269.401,3.816899
8275.187,3.870538
8280.973,3.927777
8286.758,3.996651
8292.543,4.071439
8298.329,4.158205
8304.114,4.229759
8309.899,4.317184
8315.686,4.414598
8321.471,4.484015
8327.256,4.583615
8333.042,4.658284
8338.827,4.755873
8344.612,4.85829
8350.398,4.96717
8356.184,5.072137
8361.969,5.169297
8367.755,5.265543
8373.54,5.368315
8379.325,5.461267
8385.111,5.559434
8390.896,5.627578
8396.683,5.681234
8402.468,5.714428
8408.253,5.752099
8414.039,5.782186
8419.824,5.815534
8425.609,5.85175
8431.396,5.940454
8437.181,6.030611
8442.966,6.16804
8448.752,6.312119
8454.537,6.454671
8460.322,6.574806
8466.108,6.690975
8471.894,6.776896
8477.679,6.895326
8483.465,7.007457
8489.25,7.127475
8495.035,7.22014
8500.821,7.287017
8506.606,7.355741
8512.392,7.39992
8518.178,7.456223
8523.963,7.526139
8529.748,7.565872
8535.534,7.58142
8541.319,7.556257
8547.105,7.507468
8552.891,7.418263
8558.676,7.331488
8564.462,7.278236
8570.247,7.355102
8576.032,7.483884
8581.818,7.630189
8587.604,7.789041
8593.389,7.978193
8599.175,8.145772
8604.96,8.317204
8610.745,8.511953
8616.531,8.67387
8622.316,8.848413
8628.102,8.983722
8633.888,9.125558
8639.673,9.236434
8645.458,9.330153
8651.244,9.427187
8657.029,9.504874
8662.814,9.602179
8668.601,9.655297
8674.386,9.732675
8680.172,9.795041
8685.957,9.855906
8691.742,9.931118
8697.528,10.01575
8703.313,10.1148
8709.099,10.2102
8714.885,10.31499
8720.67,10.39646
8726.455,10.47678
8732.241,10.5881
8738.026,10.66426
8743.812,10.73965
8749.598,10.82341
8755.383,10.91153
8761.168,10.94664
8766.954,11.01816
8772.739,11.06272
8778.524,11.1265
8784.311,11.17617
8790.096,11.22319
8795.881,11.24302
8801.667,11.27792
8807.452,11.32858
8813.237,11.34071
8819.023,11.36563
8824.809,11.38653
8830.595,11.41758
8836.38,11.41829
8842.165,11.42614
8847.951,11.45055
8853.736,11.45037
8859.521,11.46242
8865.308,11.48711
8871.093,11.47845
8876.878,11.47162
8882.664,11.50306
8888.449,11.48981
8894.234,11.49415
8900.021,11.50385
8905.806,11.49498
8911.591,11.49858
8917.377,11.48482
8923.162,11.49389
8928.947,11.4929
8934.733,11.45532
8940.519,11.46973
8946.304,11.46567
8952.09,11.47842
8957.875,11.45966
8963.661,11.47153
8969.446,11.47219
8975.231,11.47291
8981.018,11.47707
8986.803,11.48131
8992.588,11.48222
8998.374,11.47323
9004.159,11.50217
9009.944,11.49156
9015.73,11.49759
9021.516,11.50751
9027.301,11.50126
9033.087,11.5179
9038.872,11.50908
9044.657,11.51335
9050.443,11.519
9056.229,11.5071
9062.014,11.53553
9067.8,11.5284
9073.585,11.52053
9079.37,11.52183
9085.156,11.52763
9090.941,11.52038
9096.727,11.52457
9102.513,11.54533
9108.298,11.53708
9114.084,11.52318
9119.869,11.50567
9125.654,11.51606
9131.44,11.50946
9137.226,11.51367
9143.011,11.48897
9148.797,11.49028
9154.582,11.50555
9160.367,11.48288
9166.153,11.47319
9171.938,11.46119
9177.724,11.46222
9183.51,11.4559
9189.295,11.44357
9195.08,11.45193
9200.866,11.42193
9206.651,11.42021
9212.437,11.41365
9218.223,11.39832
9224.008,11.39066
9229.793,11.38651
9235.579,11.37824
9241.364,11.36433
9247.15,11.37813
9252.936,11.3784
9258.721,11.35837
9264.507,11.35126
9270.292,11.35499
9276.077,11.32564
9281.863,11.33033
9287.648,11.30613
9293.434,11.32601
9299.22,11.30963
9305.005,11.32176
9310.79,11.3139
9316.576,11.30658
9322.361,11.30882
9328.146,11.3054
9333.933,11.2867
9339.718,11.29762
9345.503,11.28252
9351.289,11.28269
9357.074,11.25499
9362.859,11.26043
9368.646,11.23967
9374.431,11.23518
9380.217,11.20434
9386.002,11.20287
9391.787,11.17845
9397.573,11.17792
9403.358,11.15196
9409.144,11.13866
9414.93,11.1454
9420.715,11.11498
9426.5,11.09938
9432.286,11.07665
9438.071,11.06
9443.856,11.05352
9449.643,11.02056
9455.428,11.01914
9461.213,10.99019
9466.999,10.98676
9472.784,10.95048
9478.569,10.94261
9484.355,10.9464
9490.141,10.9152
9495.926,10.91985
9501.712,10.90216
9507.497,10.89582
9513.282,10.88538
9519.068,10.87921
9524.854,10.8613
9530.64,10.84934
9536.425,10.83439
9542.21,10.82265
9547.996,10.79244
9553.781,10.77937
9559.566,10.75625
9565.353,10.75317
9571.138,10.7507
9576.923,10.74311
9582.709,10.69241
9588.494,10.71447
9594.279,10.71454
9600.065,10.7169
9605.851,10.71926
9611.636,10.73064
9617.422,10.75851
9623.207,10.75827
9628.992,10.7616
9634.778,10.80535
9640.563,10.80544
9646.349,10.83706
9652.135,10.85385
9657.92,10.87239
9663.706,10.88712
9669.491,10.92815
9675.276,10.93375
9681.063,10.96044
9686.848,11.00556
9692.633,10.99793
9698.419,11.00985
9704.204,11.03538
9709.989,11.07967
9715.775,11.11485
9721.561,11.12419
9727.346,11.13918
9733.132,11.17544
9738.917,11.1994
9744.702,11.21432
9750.488,11.25173
9756.273,11.26143
9762.059,11.24758
9767.845,11.26096
9773.63,11.25094
9779.415,11.26956
9785.201,11.26247
9790.986,11.27702
9796.771,11.30043
9802.558,11.29556
9808.343,11.27824
9814.129,11.28355
9819.914,11.27524
9825.699,11.28735
9831.485,11.29755
9837.271,11.33194
9843.056,11.3297
9848.842,11.3547
9854.627,11.3681
9860.412,11.41586
9866.198,11.43246
9871.983,11.44572
9877.769,11.5037
9883.555,11.50074
9889.34,11.55046
9895.125,11.58412
9900.911,11.58
9906.696,11.62376
9912.481,11.58625
9918.268,11.65821
9924.053,11.66918
9929.838,11.67867
9935.624,11.66528
9941.409,11.72664
9947.195,11.73669
9952.98,11.77515
9958.766,11.79744
9964.552,11.7877
9970.337,11.82462
9976.122,11.81369
9981.908,11.83668
9987.693,11.83538
9993.479,11.87362
9999.265,11.84559
10005.05,11.85138
10010.83,11.87311
10016.62,11.89483
10022.41,11.87901
10028.19,11.87561
10033.98,11.90669
10039.76,11.9267
10045.55,11.95659
10051.33,11.94954
10057.12,11.99567
10062.9,11.97354
10068.69,11.96709
10074.48,12.00842
10080.26,12.01347
10086.05,12.02233
10091.83,12.00713
10097.62,11.99126
10103.4,12.04007
10109.19,12.02201
10114.97,12.01465
10120.76,12.02079
10126.54,12.0506
10132.33,12.02349
10138.12,12.05084
10143.9,12.06741
10149.69,12.03845
10155.47,12.04922
10161.26,12.02119
10167.04,12.04246
10172.83,12.0558
10178.61,12.00644
10184.4,12.06888
10190.19,12.05621
10195.97,12.07842
10201.76,12.03784
10207.54,12.03625
10213.33,12.04514
10219.11,12.04226
10224.9,12.05737
10230.68,12.02687
10236.47,12.05058
10242.25,12.01885
10248.04,12.04674
10253.83,12.00313
10259.61,12.03033
10265.4,12.02234
10271.18,12.01437
10276.97,12.03272
10282.75,12.02663
10288.54,12.0075
10294.32,12.02958
10300.11,12.01427
10305.9,12.01701
10311.68,11.9842
10317.47,11.97619
10323.25,12.013
10329.04,11.97934
10334.82,11.97049
10340.61,11.97322
10346.39,11.95297
10352.18,11.9774
10357.96,11.98635
10363.75,11.97667
10369.54,11.97852
10375.32,11.93182
10381.11,11.95191
10386.89,11.93533
10392.68,11.90922
10398.46,11.91417
10404.25,11.932
10410.03,11.92757
10415.82,11.88665
10421.61,11.9167
10427.39,11.87827
10433.18,11.82131
10438.96,11.83232
10444.75,11.89794
10450.53,11.82366
10456.32,11.81278
10462.1,11.80865
10467.89,11.79414
10473.67,11.74568
10479.46,11.75766
10485.25,11.71418
10491.03,11.76353
10496.82,11.65396
10502.6,11.64827
10508.39,11.63681
10514.17,11.62279
10519.96,11.60019
10525.74,11.55399
10531.53,11.53885
10537.32,11.52496
10543.1,11.50885
10548.89,11.43228
10554.67,11.41889
10560.46,11.32544
10566.24,11.34083
10572.03,11.2706
10577.81,11.15609
10583.6,11.14033
10589.38,11.08971
10595.17,11.02538
10600.96,10.96509
10606.74,10.89435
10612.53,10.80141
10618.31,10.72182
10624.1,10.63236
10629.88,10.55353
10635.67,10.43291
10641.45,10.37192
10647.24,10.28519
10653.03,10.2332
10658.81,10.12162
10664.6,10.06328
10670.38,9.977512
10676.17,9.873954
10681.95,9.855977
10687.74,9.746716
10693.52,9.728638
10699.31,9.680407
10705.09,9.629586
10710.88,9.646893
10716.67,9.56473
10722.45,9.572556
10728.24,9.567752
10734.02,9.565256
10739.81,9.59188
10745.59,9.61825
10751.38,9.672204
10757.16,9.708068
10762.95,9.707602
10768.74,9.734491
10774.52,9.751771
10780.31,9.869706
10786.09,9.883666
10791.88,9.904086
10797.66,9.95542
10803.45,10.02213
10809.23,10.08705
10815.02,10.18868
10820.8,10.18449
10826.59,10.21834
10832.38,10.2816
10838.16,10.42028
10843.95,10.45185
10849.73,10.47561
10855.52,10.51515
10861.3,10.62718
10867.09,10.66978
10872.87,10.73995
10878.66,10.79815
10884.45,10.83855
10890.23,10.86342
10896.02,10.94843
10901.8,10.99178
10907.59,11.07324
10913.37,11.05931
10919.16,11.11614
10924.94,11.1468
10930.73,11.10572
10936.51,11.27421
10942.3,11.2306
10948.09,11.24362
10953.87,11.31941
10959.66,11.3951
10965.44,11.45859
10971.23,11.49419
10977.01,11.46496
10982.8,11.5522
10988.58,11.50536
10994.37,11.56178
11000.16,11.57266
11005.94,11.63998
11011.73,11.66963
11017.51,11.69421
11023.3,11.73078
11029.08,11.71385
11034.87,11.77413
11040.65,11.84834
11046.44,11.80535
11052.22,11.83286
11058.01,11.8567
11063.79,11.91716
11069.58,11.88743
11075.37,11.94018
11081.15,11.93904
11086.94,11.88882
11092.72,11.8672
11098.51,11.94201
11104.29,11.96385
11110.08,11.94643
11115.87,11.94578
11121.65,11.97135
11127.44,11.96643
11133.22,11.93722
11139.01,11.91293
11144.79,11.96349
11150.58,12.00553
11156.36,12.04404
11162.15,12.07013
11167.93,11.9986
11173.72,12.04323
11179.5,12.10159
11185.29,12.10841
11191.08,12.08405
11196.86,12.13622
11202.65,12.16006
11208.43,12.20548
11214.22,12.21762
11220.0,12.24522
11225.79,12.18158
11231.58,12.20534
11237.36,12.25761
11243.15,12.30043
11248.93,12.269
11254.72,12.37582
11260.5,12.38174
11266.29,12.34071
11272.07,12.36004
11277.86,12.35617
11283.64,12.42293
11289.43,12.36883
11295.21,12.38348
11301.0,12.36258
11306.79,12.33978
11312.57,12.45534
11318.36,12.31787
11324.14,12.41201
11329.93,12.50537
11335.71,12.434
11341.5,12.41562
11347.28,12.50725
11353.07,12.51156
11358.86,12.50817
11364.64,12.46817
11370.43,12.44924
11376.21,12.49526
11382.0,12.52253
11387.78,12.53359
11393.57,12.53704
11399.35,12.47046
11405.14,12.47474
11410.92,12.51074
11416.71,12.57164
11422.5,12.56827
11428.28,12.5774
11434.07,12.54036
11439.85,12.53539
11445.64,12.55414
11451.42,12.62901
11457.21,12.62633
11462.99,12.55738
11468.78,12.63735
11474.57,12.53553
11480.35,12.69443
11486.14,12.49053
11491.92,12.69625
11497.71,12.57738
11503.49,12.68552
11509.28,12.64231
11515.06,12.67536
11520.85,12.66214
11526.63,12.68891
11532.42,12.68618
11538.21,12.67848
11543.99,12.65566
11549.78,12.70471
11555.56,12.62793
11561.35,12.62413
11567.13,12.63304
11572.92,12.63281
11578.7,12.72919
11584.49,12.77629
11590.28,12.68512
11596.06,12.70213
11601.85,12.72881
11607.63,12.71811
11613.42,12.70871
11619.2,12.74439
11624.99,12.78124
11630.77,12.6137
11636.56,12.7534
11642.34,12.77738
11648.13,12.72467
11653.92,12.75993
11659.7,12.74104
11665.49,12.7134
11671.27,12.68758
11677.06,12.73559
11682.84,12.71223
11688.63,12.72122
11694.41,12.79537
11700.2,12.66321
11705.99,12.7161
11711.77,12.7731
11717.56,12.78697
11723.34,12.73451
11729.13,12.72202
11734.91,12.70591
11740.7,12.79715
11746.48,12.787
11752.27,12.7462
11758.05,12.80035
11763.84,12.80744
11769.63,12.81415
11775.41,12.73233
11781.2,12.69231
11786.98,12.77474
11792.77,12.77368
11798.55,12.7712
11804.34,12.58018
11810.12,12.74059
11815.91,12.67183
11821.7,12.70327
11827.48,12.59193
11833.27,12.80086
11839.05,12.71309
11844.84,12.75147
11850.62,12.5011
11856.41,12.71804
11862.19,12.74362
11867.98,12.68229
11873.76,12.61164
11879.55,12.74218
11885.34,12.68077
11891.12,12.76501
11896.91,12.7505
11902.69,12.66982
11908.48,12.73595
11914.26,12.65966
11920.05,12.81999
11925.83,12.80883
11931.62,12.79308
11937.41,12.73854
11943.19,12.78054
11948.98,12.76877
11954.76,12.75804
11960.55,12.95682
11966.33,12.74053
11972.12,12.7036
11977.9,12.61296
11983.69,12.73641
11989.47,12.83932
11995.26,12.74227
11999.12,12.77386