File: Data/NIR/H0003LDPE_6.csv
Wavenumber,Intensity
3999.706,3.228256
4005.491,3.228173
4011.277,3.229263
4017.062,3.235728
4022.848,3.240064
4028.633,3.240401
4034.419,3.243126
4040.204,3.246401
4045.99,3.251966
4051.775,3.257491
4057.561,3.257124
4063.346,3.259594
4069.132,3.259383
4074.917,3.25864
4080.703,3.269039
4086.488,3.263707
4092.274,3.266766
4098.059,3.272516
4103.845,3.271868
4109.63,3.272106
4115.416,3.27423
4121.201,3.279752
4126.987,3.279169
4132.772,3.281131
4138.558,3.277161
4144.343,3.278475
4150.129,3.27899
4155.914,3.282474
4161.7,3.287066
4167.485,3.292089
4173.271,3.297326
4179.056,3.301927
4184.842,3.304838
4190.627,3.31254
4196.413,3.319721
4202.198,3.325368
4207.983,3.335358
4213.769,3.337863
4219.555,3.345806
4225.34,3.35281
4231.125,3.3586
4236.911,3.366544
4242.697,3.360979
4248.482,3.359067
4254.268,3.361927
4260.053,3.370927
4265.838,3.377586
4271.624,3.383134
4277.41,3.387727
4283.195,3.395179
4288.98,3.393471
4294.766,3.401567
4300.552,3.40026
4306.337,3.399176
4312.123,3.397173
4317.908,3.384739
4323.693,3.377039
4329.479,3.385799
4335.265,3.38684
4341.05,3.396562
4346.835,3.3975
4352.621,3.407441
4358.407,3.411965
4364.192,3.412345
4369.978,3.416715
4375.763,3.418293
4381.548,3.419707
4387.334,3.419485
4393.12,3.420067
4398.905,3.426731
4404.69,3.430597
4410.476,3.439352
4416.262,3.449581
4422.047,3.457905
4427.833,3.479251
4433.618,3.491862
4439.403,3.524604
4445.189,3.552286
4450.975,3.58146
4456.76,3.618804
4462.545,3.65336
4468.331,3.690409
4474.116,3.7251
4479.902,3.762315
4485.688,3.807272
4491.473,3.849607
4497.258,3.890621
4503.044,3.934003
4508.83,3.98652
4514.615,4.035099
4520.4,4.085351
4526.186,4.131895
4531.971,4.182757
4537.757,4.236877
4543.542,4.291142
4549.328,4.349427
4555.113,4.408805
4560.899,4.470841
4566.685,4.527319
4572.47,4.575204
4578.255,4.619361
4584.041,4.659359
4589.826,4.694153
4595.612,4.724422
4601.397,4.751361
4607.183,4.774108
4612.968,4.798829
4618.754,4.823742
4624.539,4.851738
4630.325,4.874209
4636.11,4.886898
4641.896,4.898
4647.681,4.900759
4653.467,4.885562
4659.252,4.848079
4665.038,4.810975
4670.823,4.831222
4676.609,4.887307
4682.394,4.946599
4688.18,4.974865
4693.965,4.987414
4699.751,4.990786
4705.536,4.991479
4711.322,4.978434
4717.107,4.96333
4722.893,4.936297
4728.678,4.905553
4734.464,4.888352
4740.249,4.88016
4746.035,4.863653
4751.82,4.843709
4757.605,4.828924
4763.391,4.79666
4769.177,4.763045
4774.962,4.722487
4780.748,4.699228
4786.533,4.687769
4792.319,4.675481
4798.104,4.661959
4803.89,4.633977
4809.675,4.608108
4815.46,4.571342
4821.246,4.533483
4827.032,4.50307
4832.817,4.472991
4838.603,4.439922
4844.388,4.395213
4850.174,4.348861
4855.959,4.313354
4861.745,4.283698
4867.53,4.261849
4873.315,4.260123
4879.101,4.273332
4884.887,4.281718
4890.672,4.296944
4896.458,4.306292
4902.243,4.313569
4908.028,4.325619
4913.814,4.327267
4919.6,4.325273
4925.385,4.317297
4931.17,4.315537
4936.956,4.313226
4942.742,4.305928
4948.527,4.275226
4954.313,4.217988
4960.098,4.14195
4965.883,4.110215
4971.669,4.133073
4977.455,4.155564
4983.24,4.174191
4989.025,4.203371
4994.811,4.240853
5000.597,4.285739
5006.382,4.309372
5012.167,4.328204
5017.953,4.326637
5023.738,4.338598
5029.524,4.357094
5035.31,4.366227
5041.095,4.374114
5046.88,4.373298
5052.666,4.365149
5058.451,4.346109
5064.237,4.33802
5070.022,4.339349
5075.808,4.338551
5081.593,4.333742
5087.379,4.325935
5093.165,4.31415
5098.95,4.310154
5104.735,4.316778
5110.521,4.326668
5116.307,4.335408
5122.092,4.346442
5127.877,4.352429
5133.663,4.361127
5139.448,4.354714
5145.234,4.340864
5151.02,4.326985
5156.805,4.316445
5162.59,4.312627
5168.376,4.312677
5174.161,4.312554
5179.947,4.305142
5185.732,4.299921
5191.518,4.301505
5197.303,4.307477
5203.089,4.314277
5208.874,4.314782
5214.66,4.305609
5220.445,4.308225
5226.231,4.316184
5232.016,4.319417
5237.802,4.32546
5243.587,4.345074
5249.373,4.337959
5255.158,4.345865
5260.944,4.354879
5266.729,4.345159
5272.515,4.336534
5278.3,4.340079
5284.086,4.346125
5289.871,4.348096
5295.657,4.332994
5301.442,4.32494
5307.228,4.317515
5313.013,4.321253
5318.799,4.35192
5324.584,4.3792
5330.37,4.377967
5336.155,4.376798
5341.94,4.344201
5347.726,4.303748
5353.512,4.263103
5359.297,4.223767
5365.083,4.190641
5370.868,4.163166
5376.654,4.14823
5382.439,4.130335
5388.225,4.102343
5394.01,4.087071
5399.796,4.045029
5405.581,4.013673
5411.367,3.994344
5417.152,3.930228
5422.938,3.913398
5428.723,3.90639
5434.509,3.896789
5440.294,3.893335
5446.08,3.878494
5451.865,3.861379
5457.65,3.859382
5463.436,3.851177
5469.222,3.839611
5475.007,3.836802
5480.792,3.807099
5486.578,3.804711
5492.363,3.801334
5498.149,3.794408
5503.935,3.800451
5509.72,3.805294
5515.505,3.811488
5521.291,3.811277
5527.077,3.80791
5532.862,3.810142
5538.647,3.800249
5544.433,3.801411
5550.219,3.797777
5556.004,3.797646
5561.79,3.805624
5567.575,3.819869
5573.36,3.840597
5579.146,3.856854
5584.932,3.873511
5590.717,3.879659
5596.502,3.871847
5602.288,3.855125
5608.073,3.83471
5613.859,3.807556
5619.645,3.795569
5625.43,3.771036
5631.215,3.752828
5637.001,3.738877
5642.786,3.716171
5648.572,3.692016
5654.357,3.663223
5660.143,3.649752
5665.929,3.650402
5671.714,3.651284
5677.5,3.661705
5683.285,3.673699
5689.07,3.687152
5694.856,3.706076
5700.642,3.717249
5706.427,3.745132
5712.212,3.761121
5717.998,3.767073
5723.783,3.751433
5729.569,3.711915
5735.354,3.693699
5741.14,3.681055
5746.925,3.673157
5752.711,3.661797
5758.496,3.648894
5764.282,3.646082
5770.067,3.63596
5775.853,3.639741
5781.638,3.643995
5787.424,3.64367
5793.209,3.650174
5798.995,3.653137
5804.78,3.650865
5810.566,3.655272
5816.352,3.665943
5822.137,3.670174
5827.922,3.682912
5833.708,3.694825
5839.493,3.708557
5845.279,3.730178
5851.064,3.764466
5856.85,3.819117
5862.635,3.902939
5868.421,4.011648
5874.206,4.158612
5879.992,4.339406
5885.777,4.533895
5891.563,4.70149
5897.348,4.825153
5903.134,4.933707
5908.919,5.073513
5914.705,5.283044
5920.49,5.556645
5926.276,5.872281
5932.061,6.173037
5937.847,6.451658
5943.632,6.690262
5949.418,6.904632
5955.203,7.112548
5960.989,7.324234
5966.774,7.53634
5972.56,7.740905
5978.345,7.928442
5984.131,8.104813
5989.916,8.271771
5995.702,8.422001
6001.487,8.56476
6007.272,8.700109
6013.058,8.833372
6018.844,8.955979
6024.629,9.070751
6030.415,9.178303
6036.2,9.276119
6041.985,9.366057
6047.771,9.452497
6053.557,9.522388
6059.342,9.59912
6065.128,9.664762
6070.913,9.726416
6076.698,9.781722
6082.484,9.824391
6088.27,9.869754
6094.055,9.904544
6099.841,9.931617
6105.626,9.969893
6111.412,9.99945
6117.197,10.0374
6122.982,10.08568
6128.768,10.12937
6134.554,10.19154
6140.339,10.24765
6146.125,10.29588
6151.91,10.35086
6157.695,10.40831
6163.481,10.45824
6169.267,10.51235
6175.052,10.56347
6180.837,10.60209
6186.623,10.63741
6192.408,10.67451
6198.194,10.70486
6203.979,10.73515
6209.765,10.75965
6215.551,10.7815
6221.336,10.80842
6227.121,10.82574
6232.907,10.84764
6238.692,10.86053
6244.478,10.87657
6250.264,10.88459
6256.049,10.89431
6261.834,10.90187
6267.62,10.91168
6273.405,10.92376
6279.191,10.92627
6284.977,10.9409
6290.762,10.94452
6296.547,10.94825
6302.333,10.95742
6308.118,10.95749
6313.904,10.96079
6319.689,10.95313
6325.475,10.94835
6331.26,10.93151
6337.046,10.91629
6342.831,10.89968
6348.617,10.87731
6354.402,10.85099
6360.188,10.82437
6365.974,10.78261
6371.759,10.7252
6377.544,10.68733
6383.33,10.66245
6389.115,10.64722
6394.901,10.63204
6400.687,10.60391
6406.472,10.54221
6412.257,10.47431
6418.043,10.42124
6423.828,10.37809
6429.614,10.35795
6435.399,10.32158
6441.185,10.26005
6446.97,10.18081
6452.756,10.0831
6458.541,9.977817
6464.327,9.807983
6470.112,9.556163
6475.897,9.274105
6481.684,9.105349
6487.469,9.105889
6493.254,9.18927
6499.04,9.27001
6504.825,9.353727
6510.61,9.418211
6516.396,9.476827
6522.182,9.516257
6527.967,9.55069
6533.753,9.582408
6539.538,9.610263
6545.324,9.631168
6551.109,9.642162
6556.895,9.662288
6562.68,9.685826
6568.466,9.713383
6574.251,9.742282
6580.037,9.764757
6585.822,9.773998
6591.607,9.784602
6597.393,9.791403
6603.179,9.786777
6608.964,9.781557
6614.75,9.780236
6620.535,9.7632
6626.32,9.74459
6632.106,9.734509
6637.892,9.708349
6643.677,9.683668
6649.463,9.66127
6655.248,9.623279
6661.034,9.595554
6666.819,9.555631
6672.604,9.524075
6678.39,9.476088
6684.176,9.434034
6689.961,9.382589
6695.747,9.341496
6701.532,9.285448
6707.317,9.23236
6713.103,9.170425
6718.889,9.106273
6724.674,9.050047
6730.459,8.99764
6736.245,8.937357
6742.03,8.874916
6747.816,8.81968
6753.602,8.767111
6759.387,8.705167
6765.173,8.643014
6770.958,8.575836
6776.743,8.497294
6782.529,8.403892
6788.314,8.306396
6794.1,8.199765
6799.886,8.091942
6805.671,7.979636
6811.457,7.875238
6817.242,7.775135
6823.027,7.658515
6828.813,7.538341
6834.599,7.44624
6840.384,7.380191
6846.169,7.327367
6851.955,7.27009
6857.74,7.211281
6863.526,7.148786
6869.312,7.092664
6875.097,7.017237
6880.882,6.938718
6886.668,6.859583
6892.453,6.771883
6898.239,6.692439
6904.024,6.627773
6909.81,6.573835
6915.596,6.514019
6921.381,6.432989
6927.166,6.349401
6932.952,6.249679
6938.737,6.135707
6944.523,6.032434
6950.309,5.958307
6956.094,5.937327
6961.879,5.929754
6967.665,5.923092
6973.45,5.917964
6979.236,5.908989
6985.021,5.892918
6990.807,5.862068
6996.592,5.833533
7002.378,5.790296
7008.163,5.739851
7013.949,5.693329
7019.734,5.651536
7025.52,5.632382
7031.305,5.631116
7037.091,5.640766
7042.876,5.626148
7048.662,5.563855
7054.447,5.457494
7060.232,5.34384
7066.019,5.330713
7071.804,5.443055
7077.589,5.604164
7083.375,5.739559
7089.16,5.829316
7094.946,5.918376
7100.731,6.009292
7106.517,6.126059
7112.302,6.236963
7118.088,6.360702
7123.873,6.433508
7129.659,6.469311
7135.444,6.444731
7141.229,6.359577
7147.015,6.226715
7152.801,6.030784
7158.586,5.707204
7164.372,5.282353
7170.157,4.971716
7175.942,4.976305
7181.729,5.184277
7187.514,5.436076
7193.299,5.709543
7199.085,5.967355
7204.87,6.264198
7210.655,6.507092
7216.441,6.745092
7222.227,6.983793
7228.012,7.24541
7233.798,7.479076
7239.583,7.697248
7245.369,7.892194
7251.154,8.114055
7256.939,8.314789
7262.725,8.534042
7268.511,8.738422
7274.296,8.954271
7280.082,9.140602
7285.867,9.353663
7291.652,9.545941
7297.438,9.731688
7303.224,9.91863
7309.009,10.11481
7314.794,10.28133
7320.58,10.44211
7326.365,10.5935
7332.151,10.66906
7337.937,10.78413
7343.722,10.84859
7349.508,10.90675
7355.293,11.02076
7361.079,11.10968
7366.864,11.22586
7372.649,11.31644
7378.435,11.42023
7384.221,11.49959
7390.006,11.57294
7395.792,11.63964
7401.577,11.68195
7407.362,11.72115
7413.148,11.75779
7418.934,11.78909
7424.719,11.80519
7430.504,11.81895
7436.29,11.84069
7442.075,11.85958
7447.861,11.87638
7453.646,11.88827
7459.432,11.89958
7465.218,11.9114
7471.003,11.91537
7476.788,11.91738
7482.574,11.92358
7488.359,11.92827
7494.145,11.93074
7499.931,11.92341
7505.716,11.91356
7511.501,11.91094
7517.287,11.90677
7523.072,11.90466
7528.858,11.89367
7534.644,11.88701
7540.429,11.86641
7546.214,11.86617
7552.0,11.84984
7557.785,11.84083
7563.571,11.81932
7569.356,11.79745
7575.142,11.79114
7580.927,11.77083
7586.713,11.76691
7592.498,11.74484
7598.284,11.72683
7604.069,11.69498
7609.854,11.68122
7615.641,11.65673
7621.426,11.62271
7627.211,11.5982
7632.997,11.57066
7638.782,11.53748
7644.568,11.51588
7650.354,11.48503
7656.139,11.45916
7661.924,11.43674
7667.71,11.4115
7673.495,11.38511
7679.281,11.36468
7685.066,11.35081
7690.852,11.32737
7696.637,11.31489
7702.423,11.30207
7708.208,11.28595
7713.994,11.25754
7719.779,11.23747
7725.564,11.21781
7731.35,11.19541
7737.136,11.17289
7742.921,11.16574
7748.707,11.13663
7754.492,11.11834
7760.277,11.08605
7766.063,11.05911
7771.849,11.02904
7777.634,11.01313
7783.42,11.00014
7789.205,10.98783
7794.991,10.97048
7800.776,10.94574
7806.562,10.90988
7812.347,10.88784
7818.133,10.87198
7823.918,10.83572
7829.704,10.81766
7835.489,10.783
7841.274,10.7619
7847.06,10.71269
7852.846,10.68656
7858.631,10.63977
7864.417,10.59739
7870.202,10.56438
7875.987,10.52375
7881.773,10.46737
7887.559,10.42318
7893.344,10.37063
7899.13,10.33515
7904.915,10.26433
7910.7,10.21829
7916.486,10.15596
7922.271,10.10098
7928.057,10.03856
7933.843,9.962363
7939.628,9.899106
7945.414,9.832857
7951.199,9.761199
7956.984,9.680833
7962.77,9.605492
7968.556,9.521521
7974.341,9.435169
7980.126,9.356359
7985.912,9.265992
7991.697,9.177033
7997.483,9.088614
8003.269,8.996711
8009.054,8.898293
8014.839,8.797387
8020.625,8.694452
8026.41,8.575724
8032.196,8.472003
8037.981,8.347336
8043.767,8.236608
8049.553,8.111588
8055.338,7.978483
8061.124,7.857997
8066.909,7.735688
8072.694,7.60472
8078.48,7.466536
8084.266,7.328969
8090.051,7.195707
8095.836,7.051109
8101.622,6.89817
8107.407,6.752415
8113.192,6.591155
8118.979,6.432753
8124.764,6.26698
8130.55,6.101439
8136.335,5.951825
8142.12,5.800984
8147.906,5.629295
8153.691,5.485998
8159.477,5.313157
8165.263,5.168214
8171.048,5.025208
8176.833,4.888718
8182.619,4.771035
8188.404,4.657034
8194.189,4.568503
8199.976,4.511751
8205.761,4.448474
8211.546,4.417275
8217.332,4.395887
8223.117,4.38759
8228.902,4.383034
8234.688,4.377365
8240.474,4.384271
8246.259,4.395525
8252.045,4.427516
8257.83,4.431751
8263.616,4.47987
8269.401,4.501581
8275.187,4.568422
8280.973,4.608094
8286.758,4.683635
8292.543,4.763088
8298.329,4.848985
8304.114,4.934317
8309.899,5.017462
8315.686,5.108653
8321.471,5.202751
8327.256,5.286987
8333.042,5.379494
8338.827,5.481394
8344.612,5.597838
8350.398,5.717126
8356.184,5.826345
8361.969,5.943713
8367.755,6.056208
8373.54,6.151891
8379.325,6.263611
8385.111,6.35003
8390.896,6.430864
8396.683,6.498247
8402.468,6.545161
8408.253,6.596567
8414.039,6.618139
8419.824,6.631383
8425.609,6.693769
8431.396,6.777066
8437.181,6.904286
8442.966,7.046532
8448.752,7.19211
8454.537,7.346233
8460.322,7.494582
8466.108,7.620619
8471.894,7.73635
8477.679,7.865602
8483.465,7.98812
8489.25,8.104519
8495.035,8.222734
8500.821,8.304959
8506.606,8.38709
8512.392,8.423071
8518.178,8.482342
8523.963,8.550714
8529.748,8.606099
8535.534,8.633186
8541.319,8.60465
8547.105,8.545676
8552.891,8.451214
8558.676,8.340608
8564.462,8.290401
8570.247,8.377689
8576.032,8.516075
8581.818,8.677641
8587.604,8.858113
8593.389,9.043015
8599.175,9.256567
8604.96,9.469206
8610.745,9.671838
8616.531,9.847469
8622.316,10.0239
8628.102,10.20181
8633.888,10.33306
8639.673,10.47171
8645.458,10.60564
8651.244,10.70415
8657.029,10.80034
8662.814,10.8858
8668.601,10.97045
8674.386,11.0373
8680.172,11.1153
8685.957,11.18702
8691.742,11.26495
8697.528,11.36027
8703.313,11.47302
8709.099,11.57525
8714.885,11.66865
8720.67,11.78746
8726.455,11.88622
8732.241,11.998
8738.026,12.08805
8743.812,12.17702
8749.598,12.26825
8755.383,12.34215
8761.168,12.42221
8766.954,12.47865
8772.739,12.54191
8778.524,12.59861
8784.311,12.66495
8790.096,12.70039
8795.881,12.73225
8801.667,12.79254
8807.452,12.82222
8813.237,12.85384
8819.023,12.87399
8824.809,12.90833
8830.595,12.91282
8836.38,12.93833
8842.165,12.96237
8847.951,12.95681
8853.736,12.97579
8859.521,12.9849
8865.308,13.00634
8871.093,13.00881
8876.878,13.00828
8882.664,13.0389
8888.449,13.01047
8894.234,13.02086
8900.021,13.02607
8905.806,13.02375
8911.591,12.9991
8917.377,13.01126
8923.162,13.013
8928.947,13.01723
8934.733,13.0139
8940.519,13.00704
8946.304,12.99693
8952.09,12.9945
8957.875,13.00616
8963.661,12.99773
8969.446,13.00648
8975.231,13.0
8981.018,13.02
8986.803,13.01226
8992.588,13.02445
8998.374,13.03503
9004.159,13.04415
9009.944,13.02434
9015.73,13.0529
9021.516,13.03532
9027.301,13.05762
9033.087,13.0478
9038.872,13.05497
9044.657,13.07425
9050.443,13.07108
9056.229,13.08493
9062.014,13.07096
9067.8,13.08762
9073.585,13.07845
9079.37,13.07351
9085.156,13.10369
9090.941,13.07588
9096.727,13.10418
9102.513,13.08156
9108.298,13.09491
9114.084,13.07272
9119.869,13.07271
9125.654,13.07362
9131.44,13.07455
9137.226,13.07536
9143.011,13.04673
9148.797,13.05403
9154.582,13.0412
9160.367,13.05136
9166.153,13.02074
9171.938,13.0231
9177.724,13.03041
9183.51,13.02763
9189.295,12.99584
9195.08,12.97827
9200.866,12.98163
9206.651,12.97244
9212.437,12.97802
9218.223,12.96468
9224.008,12.95232
9229.793,12.94579
9235.579,12.92412
9241.364,12.94263
9247.15,12.92166
9252.936,12.90299
9258.721,12.91707
9264.507,12.86986
9270.292,12.88502
9276.077,12.85648
9281.863,12.86481
9287.648,12.8588
9293.434,12.83969
9299.22,12.84003
9305.005,12.84808
9310.79,12.83431
9316.576,12.8589
9322.361,12.84226
9328.146,12.85862
9333.933,12.84968
9339.718,12.83295
9345.503,12.82281
9351.289,12.8198
9357.074,12.81003
9362.859,12.80343
9368.646,12.80589
9374.431,12.79012
9380.217,12.75751
9386.002,12.74909
9391.787,12.73535
9397.573,12.70418
9403.358,12.69575
9409.144,12.69451
9414.93,12.67801
9420.715,12.6495
9426.5,12.63239
9432.286,12.61381
9438.071,12.60698
9443.856,12.59231
9449.643,12.58657
9455.428,12.5477
9461.213,12.5175
9466.999,12.49796
9472.784,12.48928
9478.569,12.48432
9484.355,12.47146
9490.141,12.43779
9495.926,12.41508
9501.712,12.4382
9507.497,12.41483
9513.282,12.38884
9519.068,12.38406
9524.854,12.36639
9530.64,12.35074
9536.425,12.37081
9542.21,12.3063
9547.996,12.30051
9553.781,12.29084
9559.566,12.26216
9565.353,12.26883
9571.138,12.25006
9576.923,12.21688
9582.709,12.20289
9588.494,12.22409
9594.279,12.19038
9600.065,12.21066
9605.851,12.23269
9611.636,12.24567
9617.422,12.24651
9623.207,12.26682
9628.992,12.318
9634.778,12.31357
9640.563,12.3154
9646.349,12.3479
9652.135,12.36485
9657.92,12.41441
9663.706,12.41667
9669.491,12.47841
9675.276,12.48574
9681.063,12.51005
9686.848,12.49734
9692.633,12.5523
9698.419,12.59002
9704.204,12.56937
9709.989,12.62907
9715.775,12.67279
9721.561,12.67635
9727.346,12.72507
9733.132,12.74572
9738.917,12.74623
9744.702,12.75454
9750.488,12.79446
9756.273,12.80789
9762.059,12.81548
9767.845,12.8384
9773.63,12.86013
9779.415,12.83735
9785.201,12.83661
9790.986,12.86059
9796.771,12.83081
9802.558,12.8284
9808.343,12.84929
9814.129,12.85104
9819.914,12.8384
9825.699,12.87664
9831.485,12.86011
9837.271,12.88285
9843.056,12.89737
9848.842,12.92612
9854.627,12.95715
9860.412,12.97176
9866.198,13.00613
9871.983,13.02361
9877.769,13.04819
9883.555,13.07071
9889.34,13.109
9895.125,13.13371
9900.911,13.1784
9906.696,13.19393
9912.481,13.20212
9918.268,13.20498
9924.053,13.24255
9929.838,13.28487
9935.624,13.29476
9941.409,13.30669
9947.195,13.31192
9952.98,13.34095
9958.766,13.40119
9964.552,13.38243
9970.337,13.40236
9976.122,13.40507
9981.908,13.40702
9987.693,13.41852
9993.479,13.44129
9999.265,13.44578
10005.05,13.46508
10010.83,13.45985
10016.62,13.48803
10022.41,13.51402
10028.19,13.49386
10033.98,13.52722
10039.76,13.52925
10045.55,13.55516
10051.33,13.57867
10057.12,13.57772
10062.9,13.59815
10068.69,13.61031
10074.48,13.5516
10080.26,13.5906
10086.05,13.61614
10091.83,13.6229
10097.62,13.58184
10103.4,13.62523
10109.19,13.64712
10114.97,13.63848
10120.76,13.66203
10126.54,13.64947
10132.33,13.66234
10138.12,13.6797
10143.9,13.67347
10149.69,13.65503
10155.47,13.64326
10161.26,13.66951
10167.04,13.65762
10172.83,13.67098
10178.61,13.67202
10184.4,13.65188
10190.19,13.67765
10195.97,13.67661
10201.76,13.65612
10207.54,13.68015
10213.33,13.71565
10219.11,13.71353
10224.9,13.6756
10230.68,13.70012
10236.47,13.6747
10242.25,13.66808
10248.04,13.67953
10253.83,13.68871
10259.61,13.67818
10265.4,13.66151
10271.18,13.65332
10276.97,13.63259
10282.75,13.64914
10288.54,13.6492
10294.32,13.62517
10300.11,13.63599
10305.9,13.6403
10311.68,13.67739
10317.47,13.60014
10323.25,13.64851
10329.04,13.62566
10334.82,13.59479
10340.61,13.60528
10346.39,13.60561
10352.18,13.61628
10357.96,13.59503
10363.75,13.62806
10369.54,13.54597
10375.32,13.56813
10381.11,13.54727
10386.89,13.54921
10392.68,13.57521
10398.46,13.52864
10404.25,13.58355
10410.03,13.51575
10415.82,13.52371
10421.61,13.54769
10427.39,13.47821
10433.18,13.4756
10438.96,13.44605
10444.75,13.48729
10450.53,13.47497
10456.32,13.428
10462.1,13.41111
10467.89,13.42621
10473.67,13.4201
10479.46,13.39495
10485.25,13.39004
10491.03,13.31744
10496.82,13.26342
10502.6,13.23043
10508.39,13.25077
10514.17,13.21437
10519.96,13.22742
10525.74,13.17912
10531.53,13.11659
10537.32,13.065
10543.1,13.06427
10548.89,13.00572
10554.67,12.97825
10560.46,12.92721
10566.24,12.85543
10572.03,12.83462
10577.81,12.71369
10583.6,12.63336
10589.38,12.59628
10595.17,12.54066
10600.96,12.46778
10606.74,12.37117
10612.53,12.34343
10618.31,12.22176
10624.1,12.16123
10629.88,12.08855
10635.67,11.9639
10641.45,11.86698
10647.24,11.74661
10653.03,11.63674
10658.81,11.59122
10664.6,11.49558
10670.38,11.3681
10676.17,11.29142
10681.95,11.2276
10687.74,11.11656
10693.52,11.12584
10699.31,11.06513
10705.09,11.04124
10710.88,10.95686
10716.67,10.95395
10722.45,11.0149
10728.24,10.91118
10734.02,11.00745
10739.81,10.97884
10745.59,11.05394
10751.38,11.04825
10757.16,11.07874
10762.95,11.10041
10768.74,11.12
10774.52,11.12839
10780.31,11.24633
10786.09,11.25276
10791.88,11.3627
10797.66,11.41859
10803.45,11.50311
10809.23,11.50072
10815.02,11.57923
10820.8,11.62146
10826.59,11.6724
10832.38,11.77762
10838.16,11.91913
10843.95,11.96248
10849.73,12.02524
10855.52,12.0746
10861.3,12.09333
10867.09,12.13567
10872.87,12.27189
10878.66,12.27348
10884.45,12.30729
10890.23,12.36634
10896.02,12.41418
10901.8,12.5285
10907.59,12.54666
10913.37,12.62803
10919.16,12.64701
10924.94,12.69426
10930.73,12.70935
10936.51,12.84041
10942.3,12.82807
10948.09,12.84536
10953.87,12.96681
10959.66,13.02719
10965.44,13.02124
10971.23,13.04205
10977.01,13.06622
10982.8,13.13133
10988.58,13.19011
10994.37,13.24366
11000.16,13.24865
11005.94,13.27769
11011.73,13.29961
11017.51,13.35265
11023.3,13.49458
11029.08,13.40727
11034.87,13.39976
11040.65,13.47086
11046.44,13.4515
11052.22,13.53493
11058.01,13.50637
11063.79,13.51598
11069.58,13.55158
11075.37,13.55772
11081.15,13.6259
11086.94,13.70043
11092.72,13.62638
11098.51,13.64149
11104.29,13.58468
11110.08,13.70673
11115.87,13.59197
11121.65,13.63269
11127.44,13.65517
11133.22,13.74413
11139.01,13.69377
11144.79,13.76561
11150.58,13.76971
11156.36,13.71941
11162.15,13.75587
11167.93,13.72427
11173.72,13.83893
11179.5,13.82446
11185.29,13.76394
11191.08,13.83466
11196.86,13.83116
11202.65,13.85617
11208.43,13.89641
11214.22,14.0012
11220.0,13.91953
11225.79,14.01884
11231.58,13.9699
11237.36,13.95776
11243.15,14.00994
11248.93,14.00793
11254.72,14.10288
11260.5,14.04321
11266.29,14.04296
11272.07,14.13644
11277.86,14.09173
11283.64,14.06545
11289.43,14.02477
11295.21,14.11323
11301.0,14.11583
11306.79,14.10846
11312.57,14.23652
11318.36,14.16201
11324.14,14.18285
11329.93,14.20009
11335.71,14.16832
11341.5,14.20083
11347.28,14.25112
11353.07,14.23179
11358.86,14.12793
11364.64,14.21421
11370.43,14.18138
11376.21,14.15702
11382.0,14.23838
11387.78,14.26741
11393.57,14.2614
11399.35,14.14182
11405.14,14.20678
11410.92,14.30881
11416.71,14.23852
11422.5,14.30444
11428.28,14.2948
11434.07,14.32398
11439.85,14.3166
11445.64,14.27912
11451.42,14.37039
11457.21,14.3423
11462.99,14.3193
11468.78,14.36511
11474.57,14.385
11480.35,14.41958
11486.14,14.30075
11491.92,14.31744
11497.71,14.35662
11503.49,14.33596
11509.28,14.39744
11515.06,14.39952
11520.85,14.38163
11526.63,14.37903
11532.42,14.46301
11538.21,14.455
11543.99,14.51882
11549.78,14.37601
11555.56,14.39096
11561.35,14.40673
11567.13,14.51855
11572.92,14.47785
11578.7,14.52232
11584.49,14.38102
11590.28,14.60266
11596.06,14.49007
11601.85,14.46149
11607.63,14.55121
11613.42,14.42006
11619.2,14.56563
11624.99,14.5905
11630.77,14.4725
11636.56,14.53769
11642.34,14.51186
11648.13,14.59567
11653.92,14.55227
11659.7,14.59077
11665.49,14.59649
11671.27,14.58485
11677.06,14.5075
11682.84,14.51724
11688.63,14.54521
11694.41,14.43938
11700.2,14.49179
11705.99,14.46754
11711.77,14.58655
11717.56,14.48374
11723.34,14.56344
11729.13,14.34871
11734.91,14.6136
11740.7,14.49451
11746.48,14.5298
11752.27,14.58439
11758.05,14.63654
11763.84,14.40383
11769.63,14.61735
11775.41,14.49708
11781.2,14.60217
11786.98,14.63795
11792.77,14.4886
11798.55,14.53179
11804.34,14.42514
11810.12,14.44595
11815.91,14.61147
11821.7,14.53568
11827.48,14.45633
11833.27,14.53936
11839.05,14.61452
11844.84,14.46802
11850.62,14.38714
11856.41,14.49146
11862.19,14.54486
11867.98,14.4786
11873.76,14.53182
11879.55,14.48942
11885.34,14.4886
11891.12,14.49192
11896.91,14.623
11902.69,14.3919
11908.48,14.41634
11914.26,14.53382
11920.05,14.44219
11925.83,14.46506
11931.62,14.68123
11937.41,14.48787
11943.19,14.47243
11948.98,14.45282
11954.76,14.42712
11960.55,14.47905
11966.33,14.55949
11972.12,14.50952
11977.9,14.61486
11983.69,14.29282
11989.47,14.48164
11995.26,14.31918
11999.12,14.42999