File: Data/NIR/H0008HDPE_2.csv
Wavenumber,Intensity
3999.706,3.08597
4005.491,3.087928
4011.277,3.083293
4017.062,3.070459
4022.848,3.069193
4028.633,3.079301
4034.419,3.078276
4040.204,3.078885
4045.99,3.080332
4051.775,3.085629
4057.561,3.083096
4063.346,3.084122
4069.132,3.083437
4074.917,3.084981
4080.703,3.089162
4086.488,3.084184
4092.274,3.081333
4098.059,3.079228
4103.845,3.08595
4109.63,3.083788
4115.416,3.089828
4121.201,3.087652
4126.987,3.09016
4132.772,3.091105
4138.558,3.093608
4144.343,3.08819
4150.129,3.08936
4155.914,3.097079
4161.7,3.099672
4167.485,3.097558
4173.271,3.101721
4179.056,3.105913
4184.842,3.111426
4190.627,3.116811
4196.413,3.121392
4202.198,3.135882
4207.983,3.147993
4213.769,3.154126
4219.555,3.156946
4225.34,3.168495
4231.125,3.173346
4236.911,3.180202
4242.697,3.173267
4248.482,3.163455
4254.268,3.170796
4260.053,3.182223
4265.838,3.202709
4271.624,3.204801
4277.41,3.211014
4283.195,3.21316
4288.98,3.224166
4294.766,3.229035
4300.552,3.229359
4306.337,3.215947
4312.123,3.206687
4317.908,3.185472
4323.693,3.175193
4329.479,3.185422
4335.265,3.197453
4341.05,3.202984
4346.835,3.212814
4352.621,3.224805
4358.407,3.239904
4364.192,3.249333
4369.978,3.25429
4375.763,3.273562
4381.548,3.292072
4387.334,3.313555
4393.12,3.347572
4398.905,3.386404
4404.69,3.438375
4410.476,3.488364
4416.262,3.541955
4422.047,3.581883
4427.833,3.621695
4433.618,3.649384
4439.403,3.679342
4445.189,3.719648
4450.975,3.775289
4456.76,3.831955
4462.545,3.872926
4468.331,3.910667
4474.116,3.935332
4479.902,3.986387
4485.688,4.033776
4491.473,4.09106
4497.258,4.143882
4503.044,4.200313
4508.83,4.25267
4514.615,4.310254
4520.4,4.362371
4526.186,4.413287
4531.971,4.463236
4537.757,4.522372
4543.542,4.579482
4549.328,4.636715
4555.113,4.701721
4560.899,4.767814
4566.685,4.825676
4572.47,4.876413
4578.255,4.919855
4584.041,4.950229
4589.826,4.978855
4595.612,4.997537
4601.397,5.013696
4607.183,5.035641
4612.968,5.058524
4618.754,5.087448
4624.539,5.116361
4630.325,5.138468
4636.11,5.150206
4641.896,5.156888
4647.681,5.156865
4653.467,5.140084
4659.252,5.093593
4665.038,5.026494
4670.823,5.037401
4676.609,5.123311
4682.394,5.197629
4688.18,5.234454
4693.965,5.246969
4699.751,5.245729
4705.536,5.240282
4711.322,5.209015
4717.107,5.176891
4722.893,5.149401
4728.678,5.133324
4734.464,5.129304
4740.249,5.125845
4746.035,5.115924
4751.82,5.096809
4757.605,5.076318
4763.391,5.045905
4769.177,5.001857
4774.962,4.94534
4780.748,4.918291
4786.533,4.911768
4792.319,4.900027
4798.104,4.886572
4803.89,4.860296
4809.675,4.829362
4815.46,4.788498
4821.246,4.748831
4827.032,4.724198
4832.817,4.697173
4838.603,4.667473
4844.388,4.624779
4850.174,4.578234
4855.959,4.533728
4861.745,4.501952
4867.53,4.482539
4873.315,4.491866
4879.101,4.506234
4884.887,4.526463
4890.672,4.547362
4896.458,4.563958
4902.243,4.58032
4908.028,4.588404
4913.814,4.597228
4919.6,4.595215
4925.385,4.593716
4931.17,4.595098
4936.956,4.598981
4942.742,4.581426
4948.527,4.551087
4954.313,4.48517
4960.098,4.389905
4965.883,4.373418
4971.669,4.418389
4977.455,4.439341
4983.24,4.467115
4989.025,4.508924
4994.811,4.555291
5000.597,4.618416
5006.382,4.658238
5012.167,4.67209
5017.953,4.674439
5023.738,4.691152
5029.524,4.713549
5035.31,4.725763
5041.095,4.729402
5046.88,4.733545
5052.666,4.716205
5058.451,4.693275
5064.237,4.676434
5070.022,4.682765
5075.808,4.684649
5081.593,4.678522
5087.379,4.668163
5093.165,4.659122
5098.95,4.65621
5104.735,4.663
5110.521,4.679683
5116.307,4.692572
5122.092,4.706164
5127.877,4.725204
5133.663,4.732479
5139.448,4.721666
5145.234,4.707116
5151.02,4.683363
5156.805,4.66497
5162.59,4.665204
5168.376,4.674786
5174.161,4.672734
5179.947,4.664249
5185.732,4.660875
5191.518,4.662503
5197.303,4.680977
5203.089,4.684903
5208.874,4.686596
5214.66,4.678688
5220.445,4.686767
5226.231,4.698788
5232.016,4.708213
5237.802,4.719122
5243.587,4.739285
5249.373,4.752334
5255.158,4.76233
5260.944,4.769254
5266.729,4.768603
5272.515,4.756454
5278.3,4.755292
5284.086,4.774086
5289.871,4.776894
5295.657,4.752076
5301.442,4.726868
5307.228,4.712304
5313.013,4.726208
5318.799,4.802849
5324.584,4.838635
5330.37,4.845828
5336.155,4.832638
5341.94,4.788208
5347.726,4.725648
5353.512,4.681297
5359.297,4.621157
5365.083,4.585406
5370.868,4.548767
5376.654,4.527951
5382.439,4.517979
5388.225,4.504285
5394.01,4.479058
5399.796,4.434927
5405.581,4.395692
5411.367,4.346683
5417.152,4.266406
5422.938,4.242542
5428.723,4.234158
5434.509,4.224681
5440.294,4.221263
5446.08,4.205008
5451.865,4.188986
5457.65,4.187753
5463.436,4.177651
5469.222,4.16653
5475.007,4.146212
5480.792,4.108191
5486.578,4.083764
5492.363,4.073202
5498.149,4.081038
5503.935,4.096488
5509.72,4.108519
5515.505,4.129458
5521.291,4.135973
5527.077,4.131745
5532.862,4.131471
5538.647,4.125092
5544.433,4.11318
5550.219,4.107038
5556.004,4.108159
5561.79,4.128444
5567.575,4.159516
5573.36,4.204555
5579.146,4.265051
5584.932,4.30644
5590.717,4.31401
5596.502,4.30028
5602.288,4.270271
5608.073,4.225726
5613.859,4.179784
5619.645,4.137319
5625.43,4.093236
5631.215,4.062276
5637.001,4.018756
5642.786,3.954072
5648.572,3.842476
5654.357,3.691271
5660.143,3.577144
5665.929,3.570313
5671.714,3.633828
5677.5,3.726674
5683.285,3.801588
5689.07,3.8516
5694.856,3.914867
5700.642,4.000086
5706.427,4.082383
5712.212,4.121799
5717.998,4.104779
5723.783,3.992577
5729.569,3.810375
5735.354,3.772725
5741.14,3.74592
5746.925,3.670977
5752.711,3.596593
5758.496,3.525297
5764.282,3.470408
5770.067,3.427663
5775.853,3.41545
5781.638,3.432726
5787.424,3.465406
5793.209,3.509075
5798.995,3.538917
5804.78,3.578229
5810.566,3.620019
5816.352,3.667119
5822.137,3.715739
5827.922,3.779858
5833.708,3.858448
5839.493,3.938038
5845.279,4.051763
5851.064,4.21307
5856.85,4.435695
5862.635,4.725437
5868.421,5.046134
5874.206,5.353149
5879.992,5.625768
5885.777,5.857656
5891.563,6.047606
5897.348,6.214468
5903.134,6.366514
5908.919,6.514472
5914.705,6.650737
5920.49,6.781229
5926.276,6.90716
5932.061,7.038938
5937.847,7.162815
5943.632,7.284176
5949.418,7.401887
5955.203,7.544453
5960.989,7.722416
5966.774,7.953331
5972.56,8.173628
5978.345,8.389631
5984.131,8.581754
5989.916,8.760117
5995.702,8.923636
6001.487,9.0724
6007.272,9.225658
6013.058,9.366879
6018.844,9.515657
6024.629,9.665627
6030.415,9.792534
6036.2,9.902425
6041.985,10.0019
6047.771,10.09155
6053.557,10.18683
6059.342,10.26061
6065.128,10.32147
6070.913,10.3839
6076.698,10.43961
6082.484,10.49775
6088.27,10.54597
6094.055,10.54789
6099.841,10.4589
6105.626,10.35402
6111.412,10.38901
6117.197,10.50975
6122.982,10.61636
6128.768,10.70632
6134.554,10.7907
6140.339,10.86569
6146.125,10.93411
6151.91,10.97936
6157.695,11.03125
6163.481,11.07876
6169.267,11.13557
6175.052,11.17864
6180.837,11.21374
6186.623,11.23974
6192.408,11.258
6198.194,11.28765
6203.979,11.31142
6209.765,11.3357
6215.551,11.36361
6221.336,11.38798
6227.121,11.41234
6232.907,11.43569
6238.692,11.44855
6244.478,11.45348
6250.264,11.46239
6256.049,11.46523
6261.834,11.47883
6267.62,11.4898
6273.405,11.49988
6279.191,11.50892
6284.977,11.51608
6290.762,11.52336
6296.547,11.5247
6302.333,11.53722
6308.118,11.5512
6313.904,11.55114
6319.689,11.54544
6325.475,11.52983
6331.26,11.51037
6337.046,11.48498
6342.831,11.46155
6348.617,11.42541
6354.402,11.39381
6360.188,11.36466
6365.974,11.30653
6371.759,11.23053
6377.544,11.17167
6383.33,11.15527
6389.115,11.13529
6394.901,11.12079
6400.687,11.06895
6406.472,10.99487
6412.257,10.89995
6418.043,10.82975
6423.828,10.80052
6429.614,10.78017
6435.399,10.7416
6441.185,10.66438
6446.97,10.56083
6452.756,10.44453
6458.541,10.32094
6464.327,10.12772
6470.112,9.828181
6475.897,9.460917
6481.684,9.22723
6487.469,9.259059
6493.254,9.406569
6499.04,9.566689
6504.825,9.705372
6510.61,9.815497
6516.396,9.895054
6522.182,9.970273
6527.967,10.02595
6533.753,10.07635
6539.538,10.12428
6545.324,10.17132
6551.109,10.20818
6556.895,10.24107
6562.68,10.27526
6568.466,10.33055
6574.251,10.38297
6580.037,10.42859
6585.822,10.4422
6591.607,10.46017
6597.393,10.46807
6603.179,10.4723
6608.964,10.47819
6614.75,10.47702
6620.535,10.46934
6626.32,10.46692
6632.106,10.44977
6637.892,10.43819
6643.677,10.41582
6649.463,10.39179
6655.248,10.35956
6661.034,10.32926
6666.819,10.28656
6672.604,10.26212
6678.39,10.21885
6684.176,10.18338
6689.961,10.13371
6695.747,10.08251
6701.532,10.02537
6707.317,9.95851
6713.103,9.893804
6718.889,9.816723
6724.674,9.758447
6730.459,9.708144
6736.245,9.655942
6742.03,9.605695
6747.816,9.545406
6753.602,9.499906
6759.387,9.440802
6765.173,9.393538
6770.958,9.319665
6776.743,9.227898
6782.529,9.125252
6788.314,9.012771
6794.1,8.887472
6799.886,8.75069
6805.671,8.631977
6811.457,8.528228
6817.242,8.404692
6823.027,8.28
6828.813,8.136099
6834.599,8.016599
6840.384,7.955751
6846.169,7.910639
6851.955,7.864381
6857.74,7.816716
6863.526,7.768422
6869.312,7.708824
6875.097,7.653833
6880.882,7.58649
6886.668,7.499088
6892.453,7.416058
6898.239,7.346008
6904.024,7.301497
6909.81,7.258864
6915.596,7.206205
6921.381,7.131322
6927.166,7.042153
6932.952,6.931113
6938.737,6.804604
6944.523,6.67487
6950.309,6.598649
6956.094,6.587874
6961.879,6.607924
6967.665,6.617074
6973.45,6.646688
6979.236,6.640318
6985.021,6.621883
6990.807,6.584914
6996.592,6.541696
7002.378,6.487898
7008.163,6.416823
7013.949,6.355569
7019.734,6.308694
7025.52,6.293605
7031.305,6.335816
7037.091,6.364998
7042.876,6.38551
7048.662,6.320533
7054.447,6.175426
7060.232,6.011708
7066.019,6.012181
7071.804,6.221248
7077.589,6.478445
7083.375,6.668887
7089.16,6.760587
7094.946,6.826494
7100.731,6.897029
7106.517,7.030405
7112.302,7.16169
7118.088,7.306091
7123.873,7.391809
7129.659,7.420193
7135.444,7.374949
7141.229,7.277467
7147.015,7.133737
7152.801,6.907127
7158.586,6.515058
7164.372,5.941977
7170.157,5.527548
7175.942,5.556637
7181.729,5.950239
7187.514,6.354496
7193.299,6.753923
7199.085,7.104421
7204.87,7.440681
7210.655,7.71931
7216.441,7.953502
7222.227,8.205218
7228.012,8.507437
7233.798,8.822146
7239.583,9.062758
7245.369,9.322845
7251.154,9.582475
7256.939,9.825425
7262.725,10.08191
7268.511,10.31323
7274.296,10.55912
7280.082,10.7756
7285.867,10.99485
7291.652,11.20448
7297.438,11.41678
7303.224,11.61586
7309.009,11.85036
7314.794,12.04971
7320.58,12.22354
7326.365,12.39793
7332.151,12.52462
7337.937,12.64983
7343.722,12.76663
7349.508,12.829
7355.293,12.91348
7361.079,12.96727
7366.864,13.03591
7372.649,13.07429
7378.435,13.13076
7384.221,13.17424
7390.006,13.19918
7395.792,13.23584
7401.577,13.26301
7407.362,13.2944
7413.148,13.31681
7418.934,13.34105
7424.719,13.36333
7430.504,13.37841
7436.29,13.39248
7442.075,13.40814
7447.861,13.43509
7453.646,13.45802
7459.432,13.47043
7465.218,13.49032
7471.003,13.49938
7476.788,13.49926
7482.574,13.50526
7488.359,13.50565
7494.145,13.49256
7499.931,13.47861
7505.716,13.48349
7511.501,13.4844
7517.287,13.47726
7523.072,13.47121
7528.858,13.46465
7534.644,13.46817
7540.429,13.4415
7546.214,13.43293
7552.0,13.41246
7557.785,13.39834
7563.571,13.39037
7569.356,13.36954
7575.142,13.35433
7580.927,13.33873
7586.713,13.32044
7592.498,13.29909
7598.284,13.27754
7604.069,13.25186
7609.854,13.22579
7615.641,13.19165
7621.426,13.16295
7627.211,13.12457
7632.997,13.08368
7638.782,13.04862
7644.568,13.01789
7650.354,12.98622
7656.139,12.9504
7661.924,12.92555
7667.71,12.89374
7673.495,12.87179
7679.281,12.85553
7685.066,12.83403
7690.852,12.82563
7696.637,12.81201
7702.423,12.78215
7708.208,12.76054
7713.994,12.74748
7719.779,12.72426
7725.564,12.7046
7731.35,12.67459
7737.136,12.6657
7742.921,12.6515
7748.707,12.63482
7754.492,12.6101
7760.277,12.57035
7766.063,12.54496
7771.849,12.51505
7777.634,12.49927
7783.42,12.49646
7789.205,12.48964
7794.991,12.47972
7800.776,12.45927
7806.562,12.43022
7812.347,12.40486
7818.133,12.3825
7823.918,12.36212
7829.704,12.32677
7835.489,12.2975
7841.274,12.26381
7847.06,12.23151
7852.846,12.19011
7858.631,12.14452
7864.417,12.09506
7870.202,12.06512
7875.987,12.00573
7881.773,11.95226
7887.559,11.90406
7893.344,11.84551
7899.13,11.80328
7904.915,11.71952
7910.7,11.66573
7916.486,11.60066
7922.271,11.54223
7928.057,11.48022
7933.843,11.40289
7939.628,11.33519
7945.414,11.25453
7951.199,11.18129
7956.984,11.09063
7962.77,10.99108
7968.556,10.92308
7974.341,10.83392
7980.126,10.73084
7985.912,10.64395
7991.697,10.53469
7997.483,10.4501
8003.269,10.33725
8009.054,10.23928
8014.839,10.12616
8020.625,10.00355
8026.41,9.895272
8032.196,9.763225
8037.981,9.648089
8043.767,9.518491
8049.553,9.381466
8055.338,9.232432
8061.124,9.107889
8066.909,8.959414
8072.694,8.818744
8078.48,8.667896
8084.266,8.525961
8090.051,8.364795
8095.836,8.227852
8101.622,8.068573
8107.407,7.903408
8113.192,7.745446
8118.979,7.566602
8124.764,7.401236
8130.55,7.219536
8136.335,7.039506
8142.12,6.854317
8147.906,6.671089
8153.691,6.49718
8159.477,6.326117
8165.263,6.135218
8171.048,5.969506
8176.833,5.780358
8182.619,5.626616
8188.404,5.489274
8194.189,5.362554
8199.976,5.268386
8205.761,5.188269
8211.546,5.139764
8217.332,5.107039
8223.117,5.102304
8228.902,5.123909
8234.688,5.135471
8240.474,5.162413
8246.259,5.167547
8252.045,5.205333
8257.83,5.250275
8263.616,5.30731
8269.401,5.376051
8275.187,5.465002
8280.973,5.551056
8286.758,5.676683
8292.543,5.811223
8298.329,5.944037
8304.114,6.057123
8309.899,6.191566
8315.686,6.342252
8321.471,6.441448
8327.256,6.582785
8333.042,6.70486
8338.827,6.858768
8344.612,7.020493
8350.398,7.190687
8356.184,7.365824
8361.969,7.557817
8367.755,7.74288
8373.54,7.906156
8379.325,8.069867
8385.111,8.217767
8390.896,8.339039
8396.683,8.420192
8402.468,8.4429
8408.253,8.44082
8414.039,8.393704
8419.824,8.373769
8425.609,8.363794
8431.396,8.429193
8437.181,8.549183
8442.966,8.71634
8448.752,8.920501
8454.537,9.105371
8460.322,9.263546
8466.108,9.397865
8471.894,9.512225
8477.679,9.6759
8483.465,9.841471
8489.25,10.02188
8495.035,10.16629
8500.821,10.25197
8506.606,10.31944
8512.392,10.34503
8518.178,10.40295
8523.963,10.47927
8529.748,10.51862
8535.534,10.52697
8541.319,10.47705
8547.105,10.35108
8552.891,10.15612
8558.676,9.914572
8564.462,9.771657
8570.247,9.872398
8576.032,10.10256
8581.818,10.37132
8587.604,10.65105
8593.389,10.99776
8599.175,11.28857
8604.96,11.61558
8610.745,11.89977
8616.531,12.16988
8622.316,12.40673
8628.102,12.61233
8633.888,12.80141
8639.673,12.9664
8645.458,13.12504
8651.244,13.27027
8657.029,13.39077
8662.814,13.5094
8668.601,13.61523
8674.386,13.7261
8680.172,13.82982
8685.957,13.93476
8691.742,14.04537
8697.528,14.16038
8703.313,14.27427
8709.099,14.38139
8714.885,14.51995
8720.67,14.59955
8726.455,14.72657
8732.241,14.85257
8738.026,14.96231
8743.812,15.07903
8749.598,15.18632
8755.383,15.28939
8761.168,15.37886
8766.954,15.44728
8772.739,15.52883
8778.524,15.60112
8784.311,15.65865
8790.096,15.72583
8795.881,15.75501
8801.667,15.79009
8807.452,15.84867
8813.237,15.8761
8819.023,15.91064
8824.809,15.92688
8830.595,15.95352
8836.38,15.96123
8842.165,15.98265
8847.951,16.00803
8853.736,16.00452
8859.521,16.02822
8865.308,16.03802
8871.093,16.04628
8876.878,16.04178
8882.664,16.04001
8888.449,16.04104
8894.234,16.03973
8900.021,16.06497
8905.806,16.03924
8911.591,16.0379
8917.377,16.03366
8923.162,16.01808
8928.947,16.01661
8934.733,15.98962
8940.519,15.99176
8946.304,15.99416
8952.09,16.00341
8957.875,15.98955
8963.661,16.00762
8969.446,16.01907
8975.231,16.00441
8981.018,16.03604
8986.803,16.03733
8992.588,16.05448
8998.374,16.05801
9004.159,16.09421
9009.944,16.09502
9015.73,16.11446
9021.516,16.12375
9027.301,16.13702
9033.087,16.15561
9038.872,16.15217
9044.657,16.18732
9050.443,16.18084
9056.229,16.18414
9062.014,16.20393
9067.8,16.19636
9073.585,16.21222
9079.37,16.21723
9085.156,16.24086
9090.941,16.23972
9096.727,16.24842
9102.513,16.25121
9108.298,16.24394
9114.084,16.24163
9119.869,16.23778
9125.654,16.23104
9131.44,16.22925
9137.226,16.24076
9143.011,16.21646
9148.797,16.21883
9154.582,16.22009
9160.367,16.21321
9166.153,16.20273
9171.938,16.1881
9177.724,16.19104
9183.51,16.16813
9189.295,16.14639
9195.08,16.13233
9200.866,16.14439
9206.651,16.12489
9212.437,16.13311
9218.223,16.10046
9224.008,16.11313
9229.793,16.1121
9235.579,16.10592
9241.364,16.0892
9247.15,16.10878
9252.936,16.10478
9258.721,16.07684
9264.507,16.06951
9270.292,16.06641
9276.077,16.04426
9281.863,16.05188
9287.648,16.02957
9293.434,16.05062
9299.22,16.03319
9305.005,16.04251
9310.79,16.04688
9316.576,16.07276
9322.361,16.05362
9328.146,16.06705
9333.933,16.0556
9339.718,16.04591
9345.503,16.05137
9351.289,16.05338
9357.074,16.02019
9362.859,16.00962
9368.646,15.99107
9374.431,15.96764
9380.217,15.94446
9386.002,15.93925
9391.787,15.91327
9397.573,15.90877
9403.358,15.88477
9409.144,15.86163
9414.93,15.85887
9420.715,15.82727
9426.5,15.78801
9432.286,15.77188
9438.071,15.74402
9443.856,15.72674
9449.643,15.67121
9455.428,15.64198
9461.213,15.61235
9466.999,15.59948
9472.784,15.55391
9478.569,15.54626
9484.355,15.54352
9490.141,15.52186
9495.926,15.49712
9501.712,15.4832
9507.497,15.49246
9513.282,15.46122
9519.068,15.45864
9524.854,15.44509
9530.64,15.41321
9536.425,15.41152
9542.21,15.36639
9547.996,15.36737
9553.781,15.32979
9559.566,15.30129
9565.353,15.29402
9571.138,15.26088
9576.923,15.25905
9582.709,15.21477
9588.494,15.22412
9594.279,15.20555
9600.065,15.22987
9605.851,15.21169
9611.636,15.25832
9617.422,15.29027
9623.207,15.35254
9628.992,15.3531
9634.778,15.40371
9640.563,15.4345
9646.349,15.48435
9652.135,15.51283
9657.92,15.58794
9663.706,15.61981
9669.491,15.68442
9675.276,15.72309
9681.063,15.75087
9686.848,15.81425
9692.633,15.84909
9698.419,15.87321
9704.204,15.92078
9709.989,15.97644
9715.775,16.04895
9721.561,16.07114
9727.346,16.12178
9733.132,16.15939
9738.917,16.21203
9744.702,16.24375
9750.488,16.29414
9756.273,16.34067
9762.059,16.34235
9767.845,16.3515
9773.63,16.36116
9779.415,16.38012
9785.201,16.37859
9790.986,16.43209
9796.771,16.4185
9802.558,16.39944
9808.343,16.40655
9814.129,16.38573
9819.914,16.41747
9825.699,16.4151
9831.485,16.44762
9837.271,16.48322
9843.056,16.48753
9848.842,16.50975
9854.627,16.58396
9860.412,16.63635
9866.198,16.70111
9871.983,16.74507
9877.769,16.81519
9883.555,16.85744
9889.34,16.91424
9895.125,16.95873
9900.911,16.9733
9906.696,17.00017
9912.481,17.02258
9918.268,17.09457
9924.053,17.11145
9929.838,17.12516
9935.624,17.18487
9941.409,17.23692
9947.195,17.2667
9952.98,17.28689
9958.766,17.36477
9964.552,17.36683
9970.337,17.40302
9976.122,17.39962
9981.908,17.41029
9987.693,17.46034
9993.479,17.50288
9999.265,17.49596
10005.05,17.49382
10010.83,17.52345
10016.62,17.56492
10022.41,17.55671
10028.19,17.56901
10033.98,17.64241
10039.76,17.64667
10045.55,17.6888
10051.33,17.69026
10057.12,17.72318
10062.9,17.70357
10068.69,17.72637
10074.48,17.73394
10080.26,17.7691
10086.05,17.77061
10091.83,17.77713
10097.62,17.77444
10103.4,17.83068
10109.19,17.81154
10114.97,17.79928
10120.76,17.82944
10126.54,17.88068
10132.33,17.83878
10138.12,17.89069
10143.9,17.84677
10149.69,17.84702
10155.47,17.84512
10161.26,17.86214
10167.04,17.87674
10172.83,17.87135
10178.61,17.85802
10184.4,17.88897
10190.19,17.90828
10195.97,17.9053
10201.76,17.88316
10207.54,17.89539
10213.33,17.90967
10219.11,17.90812
10224.9,17.90567
10230.68,17.90664
10236.47,17.90549
10242.25,17.89226
10248.04,17.88812
10253.83,17.86677
10259.61,17.88845
10265.4,17.90246
10271.18,17.87405
10276.97,17.87551
10282.75,17.85488
10288.54,17.88834
10294.32,17.88053
10300.11,17.86419
10305.9,17.8836
10311.68,17.85675
10317.47,17.82674
10323.25,17.90492
10329.04,17.8445
10334.82,17.85241
10340.61,17.84871
10346.39,17.86968
10352.18,17.83898
10357.96,17.87088
10363.75,17.8534
10369.54,17.85437
10375.32,17.82528
10381.11,17.79
10386.89,17.82792
10392.68,17.77548
10398.46,17.77089
10404.25,17.82673
10410.03,17.74873
10415.82,17.73351
10421.61,17.79991
10427.39,17.73143
10433.18,17.70583
10438.96,17.68586
10444.75,17.75037
10450.53,17.64646
10456.32,17.69616
10462.1,17.61714
10467.89,17.61
10473.67,17.58935
10479.46,17.61283
10485.25,17.54704
10491.03,17.53399
10496.82,17.44078
10502.6,17.42298
10508.39,17.3878
10514.17,17.3983
10519.96,17.30258
10525.74,17.25199
10531.53,17.23057
10537.32,17.18704
10543.1,17.11437
10548.89,17.05146
10554.67,16.97656
10560.46,16.89322
10566.24,16.79426
10572.03,16.72981
10577.81,16.58649
10583.6,16.54562
10589.38,16.45933
10595.17,16.37384
10600.96,16.24072
10606.74,16.12314
10612.53,16.0148
10618.31,15.90955
10624.1,15.75391
10629.88,15.62058
10635.67,15.44829
10641.45,15.33832
10647.24,15.22161
10653.03,15.02318
10658.81,14.89895
10664.6,14.78181
10670.38,14.66953
10676.17,14.51797
10681.95,14.46641
10687.74,14.3015
10693.52,14.2335
10699.31,14.15826
10705.09,14.12578
10710.88,14.08958
10716.67,14.04684
10722.45,14.09335
10728.24,14.0378
10734.02,14.04547
10739.81,14.13394
10745.59,14.08798
10751.38,14.15897
10757.16,14.27453
10762.95,14.33281
10768.74,14.38514
10774.52,14.42439
10780.31,14.5595
10786.09,14.65424
10791.88,14.70285
10797.66,14.83187
10803.45,14.93307
10809.23,15.03159
10815.02,15.19679
10820.8,15.20839
10826.59,15.31181
10832.38,15.48552
10838.16,15.62526
10843.95,15.69445
10849.73,15.83595
10855.52,15.86402
10861.3,15.99939
10867.09,16.11817
10872.87,16.30053
10878.66,16.36169
10884.45,16.44331
10890.23,16.49423
10896.02,16.58109
10901.8,16.73513
10907.59,16.80784
10913.37,16.93649
10919.16,16.97031
10924.94,17.09128
10930.73,17.08446
10936.51,17.27935
10942.3,17.24433
10948.09,17.31114
10953.87,17.44431
10959.66,17.5436
10965.44,17.64291
10971.23,17.72131
10977.01,17.64413
10982.8,17.741
10988.58,17.8056
10994.37,17.89432
11000.16,17.87663
11005.94,17.91486
11011.73,17.99383
11017.51,18.06963
11023.3,18.09444
11029.08,18.13797
11034.87,18.09882
11040.65,18.21607
11046.44,18.18399
11052.22,18.16331
11058.01,18.28709
11063.79,18.32807
11069.58,18.32753
11075.37,18.32852
11081.15,18.30442
11086.94,18.33883
11092.72,18.3469
11098.51,18.36195
11104.29,18.40952
11110.08,18.3649
11115.87,18.38514
11121.65,18.41605
11127.44,18.39765
11133.22,18.38536
11139.01,18.36761
11144.79,18.46971
11150.58,18.4888
11156.36,18.49654
11162.15,18.5594
11167.93,18.50092
11173.72,18.59329
11179.5,18.64193
11185.29,18.6371
11191.08,18.72845
11196.86,18.73348
11202.65,18.74509
11208.43,18.80956
11214.22,18.90226
11220.0,18.88095
11225.79,18.92076
11231.58,18.87797
11237.36,18.99488
11243.15,18.97386
11248.93,19.06906
11254.72,19.04107
11260.5,19.06253
11266.29,19.1081
11272.07,19.14064
11277.86,19.18908
11283.64,19.26271
11289.43,19.26331
11295.21,19.20162
11301.0,19.25686
11306.79,19.221
11312.57,19.26898
11318.36,19.27179
11324.14,19.28827
11329.93,19.35345
11335.71,19.37884
11341.5,19.31043
11347.28,19.36492
11353.07,19.46865
11358.86,19.37436
11364.64,19.34719
11370.43,19.3631
11376.21,19.34632
11382.0,19.47923
11387.78,19.4749
11393.57,19.51981
11399.35,19.50346
11405.14,19.48035
11410.92,19.54211
11416.71,19.57042
11422.5,19.45478
11428.28,19.52225
11434.07,19.57058
11439.85,19.56474
11445.64,19.49037
11451.42,19.68588
11457.21,19.64164
11462.99,19.67393
11468.78,19.75539
11474.57,19.65874
11480.35,19.75127
11486.14,19.61341
11491.92,19.82327
11497.71,19.71141
11503.49,19.75859
11509.28,19.7297
11515.06,19.77
11520.85,19.76472
11526.63,19.82806
11532.42,19.76244
11538.21,19.84663
11543.99,19.81168
11549.78,19.89674
11555.56,19.80537
11561.35,19.80219
11567.13,19.83325
11572.92,19.82858
11578.7,19.95595
11584.49,19.94966
11590.28,19.98251
11596.06,19.90953
11601.85,19.91278
11607.63,19.88354
11613.42,20.02806
11619.2,19.93454
11624.99,20.05158
11630.77,20.00689
11636.56,19.96826
11642.34,19.90966
11648.13,19.9743
11653.92,20.04782
11659.7,20.06506
11665.49,19.92506
11671.27,20.08031
11677.06,20.05289
11682.84,19.98573
11688.63,20.06561
11694.41,20.04842
11700.2,20.02115
11705.99,19.91877
11711.77,20.02335
11717.56,20.05894
11723.34,20.02732
11729.13,20.01596
11734.91,20.09473
11740.7,20.02291
11746.48,20.06705
11752.27,20.06754
11758.05,19.98534
11763.84,20.12877
11769.63,20.00206
11775.41,20.10757
11781.2,20.01097
11786.98,19.97763
11792.77,20.09272
11798.55,20.08475
11804.34,19.975
11810.12,20.13539
11815.91,19.99172
11821.7,20.0556
11827.48,20.16523
11833.27,20.16843
11839.05,20.08459
11844.84,20.16891
11850.62,20.08648
11856.41,20.14267
11862.19,20.14784
11867.98,20.34737
11873.76,20.10205
11879.55,20.12484
11885.34,20.14826
11891.12,20.32928
11896.91,20.28977
11902.69,20.21046
11908.48,20.31485
11914.26,20.20485
11920.05,20.36067
11925.83,20.3842
11931.62,20.44342
11937.41,20.32988
11943.19,20.41052
11948.98,20.49711
11954.76,20.47683
11960.55,20.5761
11966.33,20.48892
11972.12,20.25969
11977.9,20.54924
11983.69,20.41019
11989.47,20.58868
11995.26,20.49104
11999.12,20.60166