File: Data/NIR/H0002LDPE_1.csv
Wavenumber,Intensity
3999.706,2.548316
4005.491,2.557703
4011.277,2.555017
4017.062,2.560151
4022.848,2.560277
4028.633,2.569806
4034.419,2.571415
4040.204,2.570383
4045.99,2.574757
4051.775,2.576912
4057.561,2.579479
4063.346,2.584456
4069.132,2.581781
4074.917,2.588471
4080.703,2.592913
4086.488,2.591259
4092.274,2.592407
4098.059,2.595446
4103.845,2.598975
4109.63,2.598481
4115.416,2.60041
4121.201,2.603276
4126.987,2.601672
4132.772,2.602013
4138.558,2.605182
4144.343,2.607304
4150.129,2.605614
4155.914,2.609701
4161.7,2.613631
4167.485,2.612359
4173.271,2.618621
4179.056,2.620311
4184.842,2.624184
4190.627,2.62946
4196.413,2.637322
4202.198,2.647176
4207.983,2.648515
4213.769,2.659209
4219.555,2.664152
4225.34,2.670767
4231.125,2.669249
4236.911,2.676342
4242.697,2.677673
4248.482,2.681227
4254.268,2.682906
4260.053,2.683174
4265.838,2.692461
4271.624,2.693143
4277.41,2.695584
4283.195,2.699346
4288.98,2.704338
4294.766,2.703776
4300.552,2.705792
4306.337,2.702931
4312.123,2.705808
4317.908,2.704359
4323.693,2.702076
4329.479,2.699934
4335.265,2.708443
4341.05,2.705922
4346.835,2.710316
4352.621,2.710159
4358.407,2.713236
4364.192,2.711363
4369.978,2.710896
4375.763,2.712277
4381.548,2.713579
4387.334,2.70827
4393.12,2.714998
4398.905,2.712058
4404.69,2.717912
4410.476,2.720575
4416.262,2.724613
4422.047,2.731677
4427.833,2.743169
4433.618,2.752755
4439.403,2.76936
4445.189,2.78557
4450.975,2.805144
4456.76,2.830372
4462.545,2.850768
4468.331,2.87493
4474.116,2.894561
4479.902,2.923898
4485.688,2.943983
4491.473,2.970095
4497.258,2.998208
4503.044,3.029638
4508.83,3.054063
4514.615,3.089369
4520.4,3.118398
4526.186,3.149122
4531.971,3.182693
4537.757,3.22267
4543.542,3.254727
4549.328,3.295718
4555.113,3.337764
4560.899,3.375306
4566.685,3.412409
4572.47,3.442027
4578.255,3.471457
4584.041,3.498381
4589.826,3.51949
4595.612,3.537977
4601.397,3.560318
4607.183,3.577509
4612.968,3.584947
4618.754,3.605356
4624.539,3.623446
4630.325,3.63727
4636.11,3.64683
4641.896,3.653855
4647.681,3.654865
4653.467,3.645374
4659.252,3.619688
4665.038,3.589669
4670.823,3.602999
4676.609,3.650066
4682.394,3.68424
4688.18,3.709503
4693.965,3.713997
4699.751,3.719864
4705.536,3.723088
4711.322,3.715257
4717.107,3.705471
4722.893,3.684366
4728.678,3.667526
4734.464,3.657581
4740.249,3.650175
4746.035,3.638836
4751.82,3.628073
4757.605,3.612121
4763.391,3.598228
4769.177,3.576907
4774.962,3.548206
4780.748,3.530012
4786.533,3.522152
4792.319,3.516747
4798.104,3.507777
4803.89,3.491577
4809.675,3.469824
4815.46,3.4493
4821.246,3.422789
4827.032,3.403684
4832.817,3.38586
4838.603,3.366627
4844.388,3.336189
4850.174,3.306038
4855.959,3.283144
4861.745,3.262961
4867.53,3.253382
4873.315,3.253614
4879.101,3.259118
4884.887,3.265786
4890.672,3.279271
4896.458,3.281399
4902.243,3.294757
4908.028,3.291634
4913.814,3.297062
4919.6,3.298144
4925.385,3.29601
4931.17,3.29397
4936.956,3.292231
4942.742,3.284213
4948.527,3.265494
4954.313,3.227827
4960.098,3.179701
4965.883,3.163214
4971.669,3.180044
4977.455,3.187349
4983.24,3.205896
4989.025,3.223366
4994.811,3.246448
5000.597,3.273408
5006.382,3.293747
5012.167,3.302844
5017.953,3.308853
5023.738,3.314992
5029.524,3.32659
5035.31,3.334061
5041.095,3.332759
5046.88,3.332268
5052.666,3.326262
5058.451,3.316448
5064.237,3.311034
5070.022,3.312977
5075.808,3.307537
5081.593,3.30904
5087.379,3.301442
5093.165,3.300045
5098.95,3.298272
5104.735,3.296398
5110.521,3.306519
5116.307,3.312225
5122.092,3.320979
5127.877,3.323956
5133.663,3.330102
5139.448,3.325603
5145.234,3.31678
5151.02,3.306374
5156.805,3.302815
5162.59,3.298214
5168.376,3.304664
5174.161,3.296475
5179.947,3.292401
5185.732,3.291867
5191.518,3.289149
5197.303,3.299848
5203.089,3.299753
5208.874,3.296253
5214.66,3.294104
5220.445,3.296283
5226.231,3.306121
5232.016,3.309142
5237.802,3.306742
5243.587,3.327007
5249.373,3.31931
5255.158,3.324955
5260.944,3.331583
5266.729,3.32747
5272.515,3.318765
5278.3,3.322713
5284.086,3.328192
5289.871,3.330841
5295.657,3.317816
5301.442,3.306923
5307.228,3.312935
5313.013,3.306915
5318.799,3.32774
5324.584,3.349478
5330.37,3.353516
5336.155,3.35215
5341.94,3.32794
5347.726,3.297149
5353.512,3.281938
5359.297,3.247813
5365.083,3.224353
5370.868,3.208007
5376.654,3.197674
5382.439,3.184764
5388.225,3.169561
5394.01,3.160618
5399.796,3.135448
5405.581,3.118068
5411.367,3.098204
5417.152,3.062762
5422.938,3.048808
5428.723,3.052503
5434.509,3.043259
5440.294,3.041395
5446.08,3.026598
5451.865,3.017047
5457.65,3.015879
5463.436,3.013334
5469.222,3.005522
5475.007,3.001997
5480.792,2.98238
5486.578,2.979654
5492.363,2.979153
5498.149,2.97223
5503.935,2.977768
5509.72,2.976381
5515.505,2.98463
5521.291,2.985456
5527.077,2.982869
5532.862,2.981559
5538.647,2.979257
5544.433,2.975745
5550.219,2.976703
5556.004,2.97504
5561.79,2.981071
5567.575,2.991268
5573.36,3.001626
5579.146,3.017713
5584.932,3.028553
5590.717,3.033147
5596.502,3.0253
5602.288,3.020478
5608.073,3.00055
5613.859,2.985427
5619.645,2.971313
5625.43,2.958166
5631.215,2.947905
5637.001,2.93661
5642.786,2.921339
5648.572,2.900913
5654.357,2.884347
5660.143,2.878238
5665.929,2.878833
5671.714,2.879927
5677.5,2.887147
5683.285,2.896552
5689.07,2.901239
5694.856,2.914557
5700.642,2.929128
5706.427,2.945652
5712.212,2.954533
5717.998,2.957379
5723.783,2.941789
5729.569,2.912405
5735.354,2.908113
5741.14,2.903351
5746.925,2.891072
5752.711,2.884644
5758.496,2.879144
5764.282,2.874101
5770.067,2.874403
5775.853,2.872942
5781.638,2.878291
5787.424,2.879474
5793.209,2.878158
5798.995,2.880872
5804.78,2.880669
5810.566,2.880958
5816.352,2.887772
5822.137,2.890179
5827.922,2.897157
5833.708,2.907495
5839.493,2.917357
5845.279,2.930735
5851.064,2.962493
5856.85,3.002374
5862.635,3.065729
5868.421,3.14745
5874.206,3.248984
5879.992,3.374092
5885.777,3.499572
5891.563,3.610828
5897.348,3.69876
5903.134,3.771496
5908.919,3.866355
5914.705,3.993263
5920.49,4.155444
5926.276,4.336656
5932.061,4.516991
5937.847,4.683077
5943.632,4.827571
5949.418,4.958702
5955.203,5.090341
5960.989,5.221157
5966.774,5.367276
5972.56,5.501585
5978.345,5.632306
5984.131,5.7512
5989.916,5.85637
5995.702,5.961348
6001.487,6.053249
6007.272,6.150745
6013.058,6.240092
6018.844,6.328817
6024.629,6.413255
6030.415,6.482807
6036.2,6.546494
6041.985,6.611154
6047.771,6.664149
6053.557,6.722342
6059.342,6.76925
6065.128,6.81549
6070.913,6.853959
6076.698,6.88856
6082.484,6.925051
6088.27,6.951002
6094.055,6.977724
6099.841,6.994238
6105.626,7.017875
6111.412,7.04069
6117.197,7.060637
6122.982,7.09048
6128.768,7.129986
6134.554,7.16251
6140.339,7.196511
6146.125,7.234231
6151.91,7.268886
6157.695,7.305218
6163.481,7.341329
6169.267,7.374424
6175.052,7.406868
6180.837,7.431074
6186.623,7.463507
6192.408,7.478825
6198.194,7.503797
6203.979,7.52451
6209.765,7.543331
6215.551,7.556563
6221.336,7.568544
6227.121,7.585739
6232.907,7.603546
6238.692,7.609131
6244.478,7.616508
6250.264,7.625659
6256.049,7.627686
6261.834,7.63509
6267.62,7.63838
6273.405,7.643675
6279.191,7.653275
6284.977,7.657031
6290.762,7.660753
6296.547,7.659639
6302.333,7.665805
6308.118,7.671638
6313.904,7.667966
6319.689,7.667091
6325.475,7.661577
6331.26,7.650863
6337.046,7.636518
6342.831,7.626235
6348.617,7.607383
6354.402,7.583773
6360.188,7.566637
6365.974,7.537355
6371.759,7.497114
6377.544,7.469658
6383.33,7.456685
6389.115,7.440803
6394.901,7.433783
6400.687,7.403657
6406.472,7.362513
6412.257,7.31278
6418.043,7.272397
6423.828,7.250773
6429.614,7.230262
6435.399,7.213131
6441.185,7.162231
6446.97,7.107804
6452.756,7.043576
6458.541,6.957332
6464.327,6.840139
6470.112,6.66263
6475.897,6.456912
6481.684,6.337615
6487.469,6.347678
6493.254,6.414793
6499.04,6.473719
6504.825,6.538382
6510.61,6.589194
6516.396,6.624347
6522.182,6.654868
6527.967,6.687936
6533.753,6.710788
6539.538,6.7252
6545.324,6.746759
6551.109,6.760674
6556.895,6.775002
6562.68,6.785537
6568.466,6.811868
6574.251,6.837332
6580.037,6.854933
6585.822,6.854613
6591.607,6.859895
6597.393,6.867127
6603.179,6.867078
6608.964,6.863693
6614.75,6.863657
6620.535,6.854676
6626.32,6.843649
6632.106,6.828454
6637.892,6.81719
6643.677,6.795453
6649.463,6.784324
6655.248,6.753971
6661.034,6.737701
6666.819,6.704111
6672.604,6.692545
6678.39,6.659707
6684.176,6.629653
6689.961,6.597132
6695.747,6.562673
6701.532,6.522139
6707.317,6.491452
6713.103,6.444961
6718.889,6.400487
6724.674,6.365973
6730.459,6.326021
6736.245,6.288239
6742.03,6.254432
6747.816,6.20973
6753.602,6.173049
6759.387,6.13369
6765.173,6.097261
6770.958,6.048731
6776.743,5.997124
6782.529,5.926869
6788.314,5.862865
6794.1,5.789676
6799.886,5.712801
6805.671,5.636371
6811.457,5.573761
6817.242,5.495934
6823.027,5.419212
6828.813,5.343079
6834.599,5.276547
6840.384,5.235354
6846.169,5.198551
6851.955,5.164867
6857.74,5.126551
6863.526,5.091037
6869.312,5.0434
6875.097,5.004896
6880.882,4.957774
6886.668,4.892657
6892.453,4.843851
6898.239,4.789556
6904.024,4.748219
6909.81,4.718733
6915.596,4.681673
6921.381,4.629257
6927.166,4.581367
6932.952,4.506829
6938.737,4.431584
6944.523,4.363119
6950.309,4.318336
6956.094,4.300654
6961.879,4.305394
6967.665,4.294522
6973.45,4.303794
6979.236,4.295961
6985.021,4.281562
6990.807,4.268088
6996.592,4.241577
7002.378,4.216391
7008.163,4.179639
7013.949,4.151485
7019.734,4.123919
7025.52,4.106727
7031.305,4.113478
7037.091,4.115911
7042.876,4.121769
7048.662,4.076471
7054.447,3.999966
7060.232,3.921448
7066.019,3.923318
7071.804,3.995616
7077.589,4.093622
7083.375,4.190315
7089.16,4.254204
7094.946,4.303597
7100.731,4.356951
7106.517,4.429793
7112.302,4.510439
7118.088,4.585347
7123.873,4.642303
7129.659,4.659017
7135.444,4.652479
7141.229,4.598392
7147.015,4.500173
7152.801,4.371158
7158.586,4.166591
7164.372,3.877045
7170.157,3.684868
7175.942,3.684217
7181.729,3.841485
7187.514,4.008872
7193.299,4.193895
7199.085,4.373909
7204.87,4.558351
7210.655,4.721316
7216.441,4.871234
7222.227,5.033298
7228.012,5.205634
7233.798,5.367352
7239.583,5.519739
7245.369,5.642716
7251.154,5.798853
7256.939,5.934851
7262.725,6.074883
7268.511,6.225495
7274.296,6.363891
7280.082,6.500459
7285.867,6.634168
7291.652,6.772896
7297.438,6.901343
7303.224,7.017897
7309.009,7.155591
7314.794,7.285901
7320.58,7.380019
7326.365,7.490454
7332.151,7.551167
7337.937,7.63223
7343.722,7.6762
7349.508,7.722438
7355.293,7.791667
7361.079,7.851176
7366.864,7.92196
7372.649,7.986002
7378.435,8.051893
7384.221,8.112593
7390.006,8.157816
7395.792,8.188784
7401.577,8.22415
7407.362,8.249886
7413.148,8.272259
7418.934,8.290764
7424.719,8.307186
7430.504,8.328665
7436.29,8.33489
7442.075,8.33606
7447.861,8.358314
7453.646,8.366303
7459.432,8.377412
7465.218,8.382377
7471.003,8.386839
7476.788,8.39061
7482.574,8.393586
7488.359,8.391453
7494.145,8.393092
7499.931,8.384376
7505.716,8.384803
7511.501,8.379914
7517.287,8.381961
7523.072,8.375575
7528.858,8.373218
7534.644,8.365863
7540.429,8.349958
7546.214,8.348145
7552.0,8.333583
7557.785,8.332276
7563.571,8.324048
7569.356,8.307044
7575.142,8.300898
7580.927,8.28527
7586.713,8.269253
7592.498,8.258272
7598.284,8.242806
7604.069,8.243032
7609.854,8.226854
7615.641,8.206951
7621.426,8.184752
7627.211,8.164686
7632.997,8.141172
7638.782,8.123089
7644.568,8.106512
7650.354,8.083912
7656.139,8.060725
7661.924,8.053018
7667.71,8.038117
7673.495,8.015723
7679.281,7.998902
7685.066,7.989366
7690.852,7.97911
7696.637,7.969838
7702.423,7.945834
7708.208,7.940885
7713.994,7.924627
7719.779,7.907936
7725.564,7.902131
7731.35,7.877518
7737.136,7.871278
7742.921,7.856912
7748.707,7.842358
7754.492,7.825572
7760.277,7.800832
7766.063,7.783806
7771.849,7.770846
7777.634,7.763586
7783.42,7.749106
7789.205,7.740675
7794.991,7.729676
7800.776,7.714485
7806.562,7.688994
7812.347,7.675604
7818.133,7.661499
7823.918,7.644758
7829.704,7.617386
7835.489,7.603239
7841.274,7.584829
7847.06,7.570543
7852.846,7.539213
7858.631,7.501825
7864.417,7.475278
7870.202,7.447072
7875.987,7.410429
7881.773,7.379545
7887.559,7.352723
7893.344,7.318307
7899.13,7.299135
7904.915,7.237511
7910.7,7.203706
7916.486,7.162501
7922.271,7.122134
7928.057,7.075455
7933.843,7.037025
7939.628,6.987608
7945.414,6.942387
7951.199,6.894372
7956.984,6.841037
7962.77,6.789324
7968.556,6.732388
7974.341,6.670801
7980.126,6.617239
7985.912,6.55819
7991.697,6.494909
7997.483,6.435875
8003.269,6.36531
8009.054,6.308999
8014.839,6.240231
8020.625,6.150652
8026.41,6.091491
8032.196,6.006155
8037.981,5.937876
8043.767,5.863343
8049.553,5.776622
8055.338,5.68984
8061.124,5.612749
8066.909,5.520446
8072.694,5.430535
8078.48,5.349038
8084.266,5.246974
8090.051,5.142746
8095.836,5.067151
8101.622,4.970535
8107.407,4.866295
8113.192,4.767188
8118.979,4.660102
8124.764,4.57237
8130.55,4.449373
8136.335,4.353099
8142.12,4.243124
8147.906,4.138605
8153.691,4.033967
8159.477,3.952535
8165.263,3.845048
8171.048,3.74943
8176.833,3.655924
8182.619,3.584932
8188.404,3.519047
8194.189,3.461907
8199.976,3.415514
8205.761,3.378487
8211.546,3.356537
8217.332,3.338552
8223.117,3.338813
8228.902,3.327875
8234.688,3.335209
8240.474,3.343984
8246.259,3.34718
8252.045,3.358851
8257.83,3.376457
8263.616,3.393754
8269.401,3.419396
8275.187,3.455681
8280.973,3.489138
8286.758,3.546748
8292.543,3.610228
8298.329,3.662414
8304.114,3.69947
8309.899,3.758647
8315.686,3.833159
8321.471,3.884474
8327.256,3.963591
8333.042,4.023217
8338.827,4.089784
8344.612,4.170053
8350.398,4.252404
8356.184,4.321368
8361.969,4.412828
8367.755,4.487885
8373.54,4.553293
8379.325,4.626544
8385.111,4.702294
8390.896,4.762344
8396.683,4.798917
8402.468,4.82271
8408.253,4.83444
8414.039,4.845776
8419.824,4.871095
8425.609,4.897325
8431.396,4.952105
8437.181,5.02583
8442.966,5.126335
8448.752,5.228868
8454.537,5.330659
8460.322,5.432127
8466.108,5.519251
8471.894,5.589827
8477.679,5.676713
8483.465,5.769673
8489.25,5.870348
8495.035,5.912973
8500.821,5.984925
8506.606,6.033505
8512.392,6.065704
8518.178,6.098452
8523.963,6.156929
8529.748,6.191288
8535.534,6.189315
8541.319,6.180407
8547.105,6.134405
8552.891,6.047359
8558.676,5.975659
8564.462,5.926373
8570.247,5.994137
8576.032,6.108297
8581.818,6.228806
8587.604,6.348301
8593.389,6.505554
8599.175,6.641385
8604.96,6.784303
8610.745,6.949062
8616.531,7.082472
8622.316,7.2137
8628.102,7.322906
8633.888,7.428073
8639.673,7.516855
8645.458,7.628539
8651.244,7.687499
8657.029,7.752576
8662.814,7.820716
8668.601,7.886211
8674.386,7.940121
8680.172,8.001358
8685.957,8.055612
8691.742,8.113397
8697.528,8.189667
8703.313,8.240238
8709.099,8.321051
8714.885,8.410733
8720.67,8.476797
8726.455,8.548038
8732.241,8.638538
8738.026,8.691286
8743.812,8.764245
8749.598,8.828185
8755.383,8.89295
8761.168,8.944195
8766.954,8.986852
8772.739,9.020182
8778.524,9.073227
8784.311,9.115075
8790.096,9.167079
8795.881,9.172593
8801.667,9.204883
8807.452,9.242508
8813.237,9.25768
8819.023,9.279717
8824.809,9.295661
8830.595,9.314145
8836.38,9.312209
8842.165,9.330815
8847.951,9.341827
8853.736,9.359149
8859.521,9.359225
8865.308,9.375758
8871.093,9.389188
8876.878,9.379635
8882.664,9.387723
8888.449,9.375152
8894.234,9.37498
8900.021,9.413006
8905.806,9.401307
8911.591,9.391167
8917.377,9.394464
8923.162,9.396809
8928.947,9.40776
8934.733,9.388908
8940.519,9.382144
8946.304,9.387597
8952.09,9.385788
8957.875,9.366649
8963.661,9.396847
8969.446,9.396834
8975.231,9.388713
8981.018,9.409566
8986.803,9.405334
8992.588,9.405913
8998.374,9.406157
9004.159,9.424831
9009.944,9.416745
9015.73,9.434578
9021.516,9.430717
9027.301,9.447042
9033.087,9.465196
9038.872,9.454398
9044.657,9.446471
9050.443,9.456653
9056.229,9.459406
9062.014,9.48635
9067.8,9.480245
9073.585,9.471373
9079.37,9.480951
9085.156,9.488893
9090.941,9.503244
9096.727,9.484776
9102.513,9.504374
9108.298,9.489326
9114.084,9.490489
9119.869,9.474197
9125.654,9.487872
9131.44,9.479763
9137.226,9.49157
9143.011,9.470473
9148.797,9.467058
9154.582,9.474823
9160.367,9.481558
9166.153,9.466114
9171.938,9.454899
9177.724,9.466596
9183.51,9.454024
9189.295,9.435643
9195.08,9.447167
9200.866,9.43195
9206.651,9.435503
9212.437,9.430171
9218.223,9.428052
9224.008,9.407424
9229.793,9.411834
9235.579,9.40806
9241.364,9.393381
9247.15,9.41359
9252.936,9.406478
9258.721,9.39431
9264.507,9.390695
9270.292,9.380791
9276.077,9.395097
9281.863,9.379871
9287.648,9.361739
9293.434,9.380479
9299.22,9.363517
9305.005,9.374368
9310.79,9.369232
9316.576,9.376494
9322.361,9.358403
9328.146,9.375207
9333.933,9.371469
9339.718,9.366081
9345.503,9.388425
9351.289,9.364573
9357.074,9.336715
9362.859,9.314189
9368.646,9.331162
9374.431,9.320725
9380.217,9.30788
9386.002,9.301719
9391.787,9.295325
9397.573,9.295034
9403.358,9.286876
9409.144,9.267865
9414.93,9.261651
9420.715,9.24122
9426.5,9.23055
9432.286,9.215285
9438.071,9.221562
9443.856,9.196749
9449.643,9.184683
9455.428,9.171421
9461.213,9.149134
9466.999,9.142614
9472.784,9.114795
9478.569,9.111961
9484.355,9.12985
9490.141,9.092234
9495.926,9.092208
9501.712,9.095819
9507.497,9.096886
9513.282,9.086374
9519.068,9.065639
9524.854,9.07257
9530.64,9.039367
9536.425,9.044861
9542.21,9.039322
9547.996,9.023204
9553.781,9.000362
9559.566,8.98452
9565.353,8.981211
9571.138,8.978544
9576.923,8.979625
9582.709,8.942407
9588.494,8.946471
9594.279,8.955303
9600.065,8.962258
9605.851,8.958845
9611.636,8.989231
9617.422,8.9965
9623.207,9.006069
9628.992,9.00604
9634.778,9.046437
9640.563,9.04865
9646.349,9.101719
9652.135,9.076524
9657.92,9.134877
9663.706,9.144365
9669.491,9.176982
9675.276,9.193956
9681.063,9.181454
9686.848,9.249583
9692.633,9.229065
9698.419,9.261597
9704.204,9.285528
9709.989,9.327172
9715.775,9.351637
9721.561,9.366967
9727.346,9.379579
9733.132,9.395212
9738.917,9.428036
9744.702,9.434013
9750.488,9.467205
9756.273,9.484962
9762.059,9.510144
9767.845,9.45753
9773.63,9.495468
9779.415,9.501396
9785.201,9.497648
9790.986,9.527738
9796.771,9.530553
9802.558,9.518996
9808.343,9.500183
9814.129,9.514037
9819.914,9.513986
9825.699,9.526995
9831.485,9.534279
9837.271,9.565227
9843.056,9.584019
9848.842,9.588046
9854.627,9.625822
9860.412,9.645375
9866.198,9.649418
9871.983,9.672881
9877.769,9.713924
9883.555,9.718014
9889.34,9.741097
9895.125,9.787841
9900.911,9.774508
9906.696,9.823153
9912.481,9.833455
9918.268,9.829884
9924.053,9.852534
9929.838,9.864261
9935.624,9.88855
9941.409,9.920207
9947.195,9.936718
9952.98,9.927838
9958.766,10.00278
9964.552,9.992509
9970.337,10.03177
9976.122,10.02607
9981.908,10.03056
9987.693,10.04574
9993.479,10.06318
9999.265,10.06645
10005.05,10.05589
10010.83,10.0785
10016.62,10.09321
10022.41,10.06906
10028.19,10.08654
10033.98,10.1391
10039.76,10.12582
10045.55,10.18424
10051.33,10.18069
10057.12,10.17205
10062.9,10.17018
10068.69,10.19073
10074.48,10.20374
10080.26,10.21527
10086.05,10.22112
10091.83,10.19846
10097.62,10.20988
10103.4,10.22695
10109.19,10.2774
10114.97,10.21336
10120.76,10.22686
10126.54,10.24996
10132.33,10.27166
10138.12,10.28645
10143.9,10.26635
10149.69,10.28174
10155.47,10.25798
10161.26,10.27982
10167.04,10.27867
10172.83,10.29431
10178.61,10.25224
10184.4,10.28262
10190.19,10.3027
10195.97,10.33783
10201.76,10.31074
10207.54,10.32347
10213.33,10.31027
10219.11,10.3054
10224.9,10.33737
10230.68,10.2825
10236.47,10.28771
10242.25,10.28591
10248.04,10.28947
10253.83,10.30104
10259.61,10.29561
10265.4,10.35185
10271.18,10.29079
10276.97,10.32108
10282.75,10.29391
10288.54,10.29115
10294.32,10.29268
10300.11,10.35065
10305.9,10.29801
10311.68,10.26538
10317.47,10.28514
10323.25,10.28902
10329.04,10.30299
10334.82,10.27153
10340.61,10.33453
10346.39,10.3209
10352.18,10.28615
10357.96,10.28152
10363.75,10.27758
10369.54,10.29402
10375.32,10.27329
10381.11,10.27269
10386.89,10.25729
10392.68,10.27862
10398.46,10.21912
10404.25,10.25435
10410.03,10.24384
10415.82,10.23039
10421.61,10.26126
10427.39,10.26356
10433.18,10.20132
10438.96,10.1793
10444.75,10.27514
10450.53,10.19581
10456.32,10.19597
10462.1,10.1897
10467.89,10.14797
10473.67,10.13952
10479.46,10.15025
10485.25,10.17402
10491.03,10.14045
10496.82,10.11869
10502.6,10.06329
10508.39,10.08181
10514.17,10.06016
10519.96,10.00044
10525.74,10.01997
10531.53,9.995605
10537.32,9.956848
10543.1,9.935973
10548.89,9.898615
10554.67,9.853181
10560.46,9.836752
10566.24,9.828753
10572.03,9.737912
10577.81,9.667276
10583.6,9.664959
10589.38,9.562951
10595.17,9.598698
10600.96,9.474652
10606.74,9.437473
10612.53,9.346988
10618.31,9.299564
10624.1,9.22158
10629.88,9.189493
10635.67,9.048535
10641.45,8.973346
10647.24,8.918052
10653.03,8.839105
10658.81,8.831643
10664.6,8.663325
10670.38,8.657935
10676.17,8.554336
10681.95,8.517943
10687.74,8.486115
10693.52,8.474008
10699.31,8.408344
10705.09,8.418311
10710.88,8.428766
10716.67,8.316144
10722.45,8.362229
10728.24,8.320956
10734.02,8.365404
10739.81,8.395104
10745.59,8.336953
10751.38,8.427373
10757.16,8.45686
10762.95,8.47122
10768.74,8.470299
10774.52,8.501855
10780.31,8.588798
10786.09,8.594543
10791.88,8.666952
10797.66,8.699934
10803.45,8.78017
10809.23,8.817592
10815.02,8.876392
10820.8,8.936404
10826.59,8.937674
10832.38,9.047637
10838.16,9.125901
10843.95,9.146523
10849.73,9.183467
10855.52,9.205897
10861.3,9.302738
10867.09,9.403326
10872.87,9.412898
10878.66,9.555437
10884.45,9.499561
10890.23,9.553303
10896.02,9.56949
10901.8,9.679186
10907.59,9.694983
10913.37,9.813515
10919.16,9.783145
10924.94,9.79343
10930.73,9.871358
10936.51,9.904169
10942.3,9.906825
10948.09,9.992815
10953.87,9.987888
10959.66,10.05271
10965.44,10.16006
10971.23,10.23306
10977.01,10.19468
10982.8,10.23193
10988.58,10.20874
10994.37,10.20706
11000.16,10.21975
11005.94,10.36386
11011.73,10.37512
11017.51,10.3071
11023.3,10.41895
11029.08,10.4119
11034.87,10.39599
11040.65,10.50164
11046.44,10.46382
11052.22,10.48077
11058.01,10.50696
11063.79,10.61172
11069.58,10.61775
11075.37,10.58383
11081.15,10.58668
11086.94,10.56735
11092.72,10.503
11098.51,10.58508
11104.29,10.6138
11110.08,10.59243
11115.87,10.59342
11121.65,10.55862
11127.44,10.69095
11133.22,10.58864
11139.01,10.59255
11144.79,10.65719
11150.58,10.73911
11156.36,10.78278
11162.15,10.80265
11167.93,10.71722
11173.72,10.70687
11179.5,10.776
11185.29,10.73637
11191.08,10.82165
11196.86,10.7775
11202.65,10.8133
11208.43,10.89082
11214.22,10.83314
11220.0,10.91794
11225.79,10.90157
11231.58,10.9197
11237.36,10.92185
11243.15,10.90895
11248.93,11.01528
11254.72,10.99356
11260.5,11.10068
11266.29,11.01419
11272.07,11.03933
11277.86,11.04311
11283.64,11.03813
11289.43,11.0679
11295.21,11.0008
11301.0,11.12408
11306.79,11.12674
11312.57,11.11277
11318.36,11.05374
11324.14,11.02669
11329.93,11.17215
11335.71,11.16054
11341.5,11.0303
11347.28,11.19631
11353.07,11.29333
11358.86,11.0668
11364.64,11.14358
11370.43,11.09529
11376.21,11.17597
11382.0,11.22072
11387.78,11.15135
11393.57,11.20592
11399.35,11.26834
11405.14,11.20386
11410.92,11.22332
11416.71,11.30708
11422.5,11.18324
11428.28,11.35928
11434.07,11.29582
11439.85,11.35848
11445.64,11.24277
11451.42,11.3005
11457.21,11.31259
11462.99,11.32389
11468.78,11.3095
11474.57,11.30297
11480.35,11.39196
11486.14,11.26964
11491.92,11.4272
11497.71,11.40421
11503.49,11.37697
11509.28,11.42142
11515.06,11.39421
11520.85,11.43435
11526.63,11.47754
11532.42,11.37671
11538.21,11.39165
11543.99,11.38133
11549.78,11.502
11555.56,11.39972
11561.35,11.40325
11567.13,11.3984
11572.92,11.43178
11578.7,11.45109
11584.49,11.46003
11590.28,11.51655
11596.06,11.47543
11601.85,11.46974
11607.63,11.32944
11613.42,11.47462
11619.2,11.33493
11624.99,11.58619
11630.77,11.49936
11636.56,11.52733
11642.34,11.51998
11648.13,11.47401
11653.92,11.46806
11659.7,11.55777
11665.49,11.37962
11671.27,11.5583
11677.06,11.49178
11682.84,11.52447
11688.63,11.4783
11694.41,11.62425
11700.2,11.42265
11705.99,11.64713
11711.77,11.46318
11717.56,11.52969
11723.34,11.54271
11729.13,11.49408
11734.91,11.5723
11740.7,11.53978
11746.48,11.75058
11752.27,11.6034
11758.05,11.70839
11763.84,11.74842
11769.63,11.48826
11775.41,11.54808
11781.2,11.65793
11786.98,11.53942
11792.77,11.53401
11798.55,11.46849
11804.34,11.40516
11810.12,11.56713
11815.91,11.61184
11821.7,11.50634
11827.48,11.54284
11833.27,11.64754
11839.05,11.54357
11844.84,11.4267
11850.62,11.48109
11856.41,11.36108
11862.19,11.51013
11867.98,11.72731
11873.76,11.33611
11879.55,11.47959
11885.34,11.29408
11891.12,11.5625
11896.91,11.46415
11902.69,11.44349
11908.48,11.53722
11914.26,11.37787
11920.05,11.51583
11925.83,11.51743
11931.62,11.50814
11937.41,11.39002
11943.19,11.49904
11948.98,11.47409
11954.76,11.47905
11960.55,11.59492
11966.33,11.47524
11972.12,11.19619
11977.9,11.47074
11983.69,11.38492
11989.47,11.52311
11995.26,11.51191
11999.12,11.47747