File: Data/NIR/H0002LDPE_2.csv
Wavenumber,Intensity
3999.706,2.629323
4005.491,2.634228
4011.277,2.641821
4017.062,2.645866
4022.848,2.639595
4028.633,2.649211
4034.419,2.652528
4040.204,2.65275
4045.99,2.653335
4051.775,2.654305
4057.561,2.658739
4063.346,2.660755
4069.132,2.661705
4074.917,2.666529
4080.703,2.66915
4086.488,2.6708
4092.274,2.668759
4098.059,2.668247
4103.845,2.672076
4109.63,2.672779
4115.416,2.679028
4121.201,2.674122
4126.987,2.678451
4132.772,2.676723
4138.558,2.680142
4144.343,2.682942
4150.129,2.674851
4155.914,2.684138
4161.7,2.687539
4167.485,2.684467
4173.271,2.692074
4179.056,2.694956
4184.842,2.699255
4190.627,2.70205
4196.413,2.710405
4202.198,2.715208
4207.983,2.724755
4213.769,2.729565
4219.555,2.733557
4225.34,2.74127
4231.125,2.744932
4236.911,2.748918
4242.697,2.752897
4248.482,2.749469
4254.268,2.748593
4260.053,2.755871
4265.838,2.767018
4271.624,2.766359
4277.41,2.772955
4283.195,2.772071
4288.98,2.777819
4294.766,2.780236
4300.552,2.778774
4306.337,2.778291
4312.123,2.777573
4317.908,2.767365
4323.693,2.764567
4329.479,2.764977
4335.265,2.77544
4341.05,2.775082
4346.835,2.780053
4352.621,2.78089
4358.407,2.787378
4364.192,2.788172
4369.978,2.7849
4375.763,2.791079
4381.548,2.789335
4387.334,2.788526
4393.12,2.794719
4398.905,2.790498
4404.69,2.797861
4410.476,2.80417
4416.262,2.814555
4422.047,2.831645
4427.833,2.859138
4433.618,2.88188
4439.403,2.911915
4445.189,2.947447
4450.975,2.990449
4456.76,3.040863
4462.545,3.084543
4468.331,3.129139
4474.116,3.174321
4479.902,3.223328
4485.688,3.265677
4491.473,3.314833
4497.258,3.364434
4503.044,3.418518
4508.83,3.470084
4514.615,3.527008
4520.4,3.581683
4526.186,3.633526
4531.971,3.690481
4537.757,3.74514
4543.542,3.80853
4549.328,3.864621
4555.113,3.927375
4560.899,3.990042
4566.685,4.051736
4572.47,4.093652
4578.255,4.144287
4584.041,4.183378
4589.826,4.215977
4595.612,4.244401
4601.397,4.275769
4607.183,4.299682
4612.968,4.316409
4618.754,4.345597
4624.539,4.3729
4630.325,4.393939
4636.11,4.40594
4641.896,4.416196
4647.681,4.415681
4653.467,4.40227
4659.252,4.360478
4665.038,4.317925
4670.823,4.333359
4676.609,4.401659
4682.394,4.457117
4688.18,4.493825
4693.965,4.503396
4699.751,4.508358
4705.536,4.506429
4711.322,4.493997
4717.107,4.478121
4722.893,4.446702
4728.678,4.414582
4734.464,4.395554
4740.249,4.384749
4746.035,4.368265
4751.82,4.349591
4757.605,4.325956
4763.391,4.29676
4769.177,4.259189
4774.962,4.213957
4780.748,4.188432
4786.533,4.175501
4792.319,4.165211
4798.104,4.150164
4803.89,4.121572
4809.675,4.09057
4815.46,4.04564
4821.246,4.00915
4827.032,3.974597
4832.817,3.944314
4838.603,3.907665
4844.388,3.861769
4850.174,3.814591
4855.959,3.768304
4861.745,3.734447
4867.53,3.711504
4873.315,3.713624
4879.101,3.722856
4884.887,3.736229
4890.672,3.756945
4896.458,3.765481
4902.243,3.77599
4908.028,3.782406
4913.814,3.788702
4919.6,3.787251
4925.385,3.784175
4931.17,3.781466
4936.956,3.779223
4942.742,3.761766
4948.527,3.73114
4954.313,3.668705
4960.098,3.578051
4965.883,3.550116
4971.669,3.57693
4977.455,3.598134
4983.24,3.622973
4989.025,3.655407
4994.811,3.701015
5000.597,3.746239
5006.382,3.779537
5012.167,3.791228
5017.953,3.796054
5023.738,3.808983
5029.524,3.829255
5035.31,3.84145
5041.095,3.842025
5046.88,3.844913
5052.666,3.830552
5058.451,3.809869
5064.237,3.798256
5070.022,3.803553
5075.808,3.801402
5081.593,3.796274
5087.379,3.7814
5093.165,3.776082
5098.95,3.767335
5104.735,3.772964
5110.521,3.786451
5116.307,3.794138
5122.092,3.806711
5127.877,3.815895
5133.663,3.822434
5139.448,3.816973
5145.234,3.802212
5151.02,3.781187
5156.805,3.768686
5162.59,3.765149
5168.376,3.771596
5174.161,3.762198
5179.947,3.753749
5185.732,3.747769
5191.518,3.747237
5197.303,3.75979
5203.089,3.76926
5208.874,3.756578
5214.66,3.754442
5220.445,3.757891
5226.231,3.761958
5232.016,3.771578
5237.802,3.77752
5243.587,3.800483
5249.373,3.787559
5255.158,3.801159
5260.944,3.81352
5266.729,3.804313
5272.515,3.793177
5278.3,3.798588
5284.086,3.802243
5289.871,3.808342
5295.657,3.786585
5301.442,3.769066
5307.228,3.763076
5313.013,3.767868
5318.799,3.805659
5324.584,3.842668
5330.37,3.842898
5336.155,3.845506
5341.94,3.805974
5347.726,3.744042
5353.512,3.705971
5359.297,3.659021
5365.083,3.620062
5370.868,3.592319
5376.654,3.566976
5382.439,3.552149
5388.225,3.516614
5394.01,3.495321
5399.796,3.455634
5405.581,3.418644
5411.367,3.383733
5417.152,3.318053
5422.938,3.295943
5428.723,3.288208
5434.509,3.274486
5440.294,3.269489
5446.08,3.248321
5451.865,3.232698
5457.65,3.230979
5463.436,3.221713
5469.222,3.202947
5475.007,3.198276
5480.792,3.166414
5486.578,3.160466
5492.363,3.149633
5498.149,3.146189
5503.935,3.151032
5509.72,3.153869
5515.505,3.164728
5521.291,3.168343
5527.077,3.162454
5532.862,3.16578
5538.647,3.155119
5544.433,3.152988
5550.219,3.150337
5556.004,3.148376
5561.79,3.157702
5567.575,3.174569
5573.36,3.198589
5579.146,3.226537
5584.932,3.249607
5590.717,3.254864
5596.502,3.24691
5602.288,3.223246
5608.073,3.195044
5613.859,3.164218
5619.645,3.141113
5625.43,3.114018
5631.215,3.088128
5637.001,3.065921
5642.786,3.034893
5648.572,2.995764
5654.357,2.956503
5660.143,2.942989
5665.929,2.944112
5671.714,2.947906
5677.5,2.960962
5683.285,2.976629
5689.07,2.989588
5694.856,3.009849
5700.642,3.04416
5706.427,3.075245
5712.212,3.09685
5717.998,3.102624
5723.783,3.066404
5729.569,3.011015
5735.354,2.998656
5741.14,2.982361
5746.925,2.96146
5752.711,2.946593
5758.496,2.942039
5764.282,2.936494
5770.067,2.934082
5775.853,2.932497
5781.638,2.935647
5787.424,2.935273
5793.209,2.939372
5798.995,2.941613
5804.78,2.941779
5810.566,2.946003
5816.352,2.953994
5822.137,2.958039
5827.922,2.97365
5833.708,2.986896
5839.493,3.008052
5845.279,3.042313
5851.064,3.100395
5856.85,3.176636
5862.635,3.294527
5868.421,3.451973
5874.206,3.631891
5879.992,3.843207
5885.777,4.052926
5891.563,4.232903
5897.348,4.367455
5903.134,4.490345
5908.919,4.629624
5914.705,4.826036
5920.49,5.073192
5926.276,5.339455
5932.061,5.60406
5937.847,5.841451
5943.632,6.047001
5949.418,6.228714
5955.203,6.410161
5960.989,6.589379
5966.774,6.784703
5972.56,6.964594
5978.345,7.129787
5984.131,7.282691
5989.916,7.428882
5995.702,7.567622
6001.487,7.684337
6007.272,7.803693
6013.058,7.92084
6018.844,8.028061
6024.629,8.136223
6030.415,8.222222
6036.2,8.302264
6041.985,8.38199
6047.771,8.450421
6053.557,8.521723
6059.342,8.577815
6065.128,8.635782
6070.913,8.686996
6076.698,8.722388
6082.484,8.7669
6088.27,8.802601
6094.055,8.828407
6099.841,8.853224
6105.626,8.880416
6111.412,8.903791
6117.197,8.929195
6122.982,8.96423
6128.768,9.010592
6134.554,9.053483
6140.339,9.099071
6146.125,9.135861
6151.91,9.183187
6157.695,9.220897
6163.481,9.264445
6169.267,9.303017
6175.052,9.348037
6180.837,9.377012
6186.623,9.4152
6192.408,9.430159
6198.194,9.460669
6203.979,9.478722
6209.765,9.50636
6215.551,9.527851
6221.336,9.539199
6227.121,9.556057
6232.907,9.575188
6238.692,9.583625
6244.478,9.589579
6250.264,9.601061
6256.049,9.607191
6261.834,9.608427
6267.62,9.617975
6273.405,9.622313
6279.191,9.631332
6284.977,9.636877
6290.762,9.638754
6296.547,9.641163
6302.333,9.646258
6308.118,9.648703
6313.904,9.649227
6319.689,9.645744
6325.475,9.636348
6331.26,9.625432
6337.046,9.61319
6342.831,9.593649
6348.617,9.576503
6354.402,9.551002
6360.188,9.530224
6365.974,9.489808
6371.759,9.450561
6377.544,9.410581
6383.33,9.388812
6389.115,9.375041
6394.901,9.364999
6400.687,9.328677
6406.472,9.282759
6412.257,9.217497
6418.043,9.171464
6423.828,9.143434
6429.614,9.121618
6435.399,9.094332
6441.185,9.036869
6446.97,8.972212
6452.756,8.887962
6458.541,8.790401
6464.327,8.644176
6470.112,8.430735
6475.897,8.174924
6481.684,8.022682
6487.469,8.028759
6493.254,8.107624
6499.04,8.187728
6504.825,8.268782
6510.61,8.326314
6516.396,8.375677
6522.182,8.413932
6527.967,8.45082
6533.753,8.472608
6539.538,8.496579
6545.324,8.516131
6551.109,8.535516
6556.895,8.552568
6562.68,8.569319
6568.466,8.597638
6574.251,8.627218
6580.037,8.649226
6585.822,8.655884
6591.607,8.66334
6597.393,8.662691
6603.179,8.662979
6608.964,8.660026
6614.75,8.658793
6620.535,8.645981
6626.32,8.636332
6632.106,8.619699
6637.892,8.604174
6643.677,8.58036
6649.463,8.55752
6655.248,8.527463
6661.034,8.505572
6666.819,8.466599
6672.604,8.444489
6678.39,8.403773
6684.176,8.37394
6689.961,8.326411
6695.747,8.290567
6701.532,8.241829
6707.317,8.188115
6713.103,8.140326
6718.889,8.084696
6724.674,8.036774
6730.459,7.984932
6736.245,7.937233
6742.03,7.894923
6747.816,7.838016
6753.602,7.794882
6759.387,7.743438
6765.173,7.697385
6770.958,7.631714
6776.743,7.566032
6782.529,7.481083
6788.314,7.399429
6794.1,7.297423
6799.886,7.202956
6805.671,7.099513
6811.457,7.017796
6817.242,6.912486
6823.027,6.820505
6828.813,6.707529
6834.599,6.619241
6840.384,6.568638
6846.169,6.519691
6851.955,6.470271
6857.74,6.420096
6863.526,6.364566
6869.312,6.307215
6875.097,6.251447
6880.882,6.181626
6886.668,6.095228
6892.453,6.02533
6898.239,5.955856
6904.024,5.900818
6909.81,5.85951
6915.596,5.801235
6921.381,5.727382
6927.166,5.646988
6932.952,5.553784
6938.737,5.440757
6944.523,5.347199
6950.309,5.284679
6956.094,5.259074
6961.879,5.26063
6967.665,5.256051
6973.45,5.255163
6979.236,5.247429
6985.021,5.227689
6990.807,5.200756
6996.592,5.170473
7002.378,5.129539
7008.163,5.07757
7013.949,5.033017
7019.734,4.987852
7025.52,4.969244
7031.305,4.983474
7037.091,4.986655
7042.876,4.985506
7048.662,4.915217
7054.447,4.805302
7060.232,4.690423
7066.019,4.687586
7071.804,4.798271
7077.589,4.956175
7083.375,5.092697
7089.16,5.178344
7094.946,5.256343
7100.731,5.32813
7106.517,5.441868
7112.302,5.554069
7118.088,5.658957
7123.873,5.741697
7129.659,5.775537
7135.444,5.746982
7141.229,5.672942
7147.015,5.545744
7152.801,5.353941
7158.586,5.06611
7164.372,4.628406
7170.157,4.302171
7175.942,4.313728
7181.729,4.546233
7187.514,4.819568
7193.299,5.094297
7199.085,5.350823
7204.87,5.602495
7210.655,5.843758
7216.441,6.056894
7222.227,6.268449
7228.012,6.503125
7233.798,6.694925
7239.583,6.92887
7245.369,7.079358
7251.154,7.297783
7256.939,7.459205
7262.725,7.639967
7268.511,7.822401
7274.296,8.003779
7280.082,8.18423
7285.867,8.355201
7291.652,8.522842
7297.438,8.66699
7303.224,8.816305
7309.009,8.975299
7314.794,9.1217
7320.58,9.253041
7326.365,9.397017
7332.151,9.437012
7337.937,9.568903
7343.722,9.589314
7349.508,9.634596
7355.293,9.727011
7361.079,9.795461
7366.864,9.890121
7372.649,9.961966
7378.435,10.04099
7384.221,10.08924
7390.006,10.14549
7395.792,10.18882
7401.577,10.23243
7407.362,10.25272
7413.148,10.28122
7418.934,10.30705
7424.719,10.325
7430.504,10.339
7436.29,10.35129
7442.075,10.36196
7447.861,10.37932
7453.646,10.38998
7459.432,10.39132
7465.218,10.40013
7471.003,10.41338
7476.788,10.414
7482.574,10.41917
7488.359,10.41046
7494.145,10.41362
7499.931,10.4045
7505.716,10.40874
7511.501,10.4038
7517.287,10.39683
7523.072,10.39344
7528.858,10.38492
7534.644,10.37735
7540.429,10.36945
7546.214,10.3676
7552.0,10.34917
7557.785,10.3349
7563.571,10.33084
7569.356,10.3139
7575.142,10.3024
7580.927,10.29409
7586.713,10.28236
7592.498,10.25758
7598.284,10.23667
7604.069,10.22782
7609.854,10.21259
7615.641,10.19389
7621.426,10.16877
7627.211,10.14115
7632.997,10.12169
7638.782,10.08878
7644.568,10.06324
7650.354,10.05251
7656.139,10.02681
7661.924,10.00684
7667.71,9.993408
7673.495,9.96537
7679.281,9.949345
7685.066,9.940656
7690.852,9.925612
7696.637,9.914598
7702.423,9.895271
7708.208,9.875065
7713.994,9.86203
7719.779,9.848302
7725.564,9.828425
7731.35,9.798123
7737.136,9.799523
7742.921,9.788936
7748.707,9.768166
7754.492,9.746971
7760.277,9.723707
7766.063,9.694438
7771.849,9.679749
7777.634,9.668545
7783.42,9.65876
7789.205,9.642083
7794.991,9.623528
7800.776,9.609549
7806.562,9.580989
7812.347,9.568839
7818.133,9.545776
7823.918,9.526834
7829.704,9.493827
7835.489,9.473814
7841.274,9.451469
7847.06,9.426973
7852.846,9.397982
7858.631,9.349797
7864.417,9.319142
7870.202,9.286561
7875.987,9.25144
7881.773,9.207948
7887.559,9.175229
7893.344,9.135438
7899.13,9.08919
7904.915,9.041356
7910.7,8.99578
7916.486,8.9498
7922.271,8.903934
7928.057,8.848411
7933.843,8.798703
7939.628,8.740447
7945.414,8.676888
7951.199,8.615527
7956.984,8.554924
7962.77,8.485229
7968.556,8.425637
7974.341,8.356192
7980.126,8.279661
7985.912,8.199772
7991.697,8.129708
7997.483,8.053495
8003.269,7.966335
8009.054,7.890095
8014.839,7.79754
8020.625,7.707312
8026.41,7.614194
8032.196,7.509522
8037.981,7.432201
8043.767,7.327538
8049.553,7.207514
8055.338,7.10221
8061.124,6.993939
8066.909,6.880473
8072.694,6.770098
8078.48,6.643742
8084.266,6.523257
8090.051,6.389096
8095.836,6.27223
8101.622,6.137755
8107.407,6.003315
8113.192,5.863226
8118.979,5.707611
8124.764,5.575377
8130.55,5.41612
8136.335,5.260494
8142.12,5.1113
8147.906,4.960904
8153.691,4.800917
8159.477,4.666925
8165.263,4.495934
8171.048,4.364055
8176.833,4.218353
8182.619,4.098995
8188.404,3.993422
8194.189,3.888982
8199.976,3.81862
8205.761,3.760933
8211.546,3.714677
8217.332,3.693917
8223.117,3.682229
8228.902,3.682107
8234.688,3.683724
8240.474,3.708168
8246.259,3.70254
8252.045,3.723215
8257.83,3.739864
8263.616,3.776733
8269.401,3.82044
8275.187,3.890218
8280.973,3.939987
8286.758,4.03001
8292.543,4.11321
8298.329,4.207583
8304.114,4.291474
8309.899,4.383068
8315.686,4.482752
8321.471,4.564227
8327.256,4.672251
8333.042,4.771528
8338.827,4.873164
8344.612,4.974175
8350.398,5.098364
8356.184,5.207609
8361.969,5.318297
8367.755,5.429587
8373.54,5.531416
8379.325,5.633594
8385.111,5.738063
8390.896,5.815531
8396.683,5.876113
8402.468,5.905495
8408.253,5.941458
8414.039,5.953573
8419.824,5.988004
8425.609,6.017823
8431.396,6.089746
8437.181,6.181217
8442.966,6.327838
8448.752,6.474455
8454.537,6.605919
8460.322,6.732737
8466.108,6.835411
8471.894,6.940317
8477.679,7.056484
8483.465,7.165452
8489.25,7.293118
8495.035,7.385909
8500.821,7.451838
8506.606,7.522821
8512.392,7.554487
8518.178,7.608052
8523.963,7.675412
8529.748,7.721573
8535.534,7.72845
8541.319,7.69947
8547.105,7.642316
8552.891,7.54435
8558.676,7.438408
8564.462,7.376089
8570.247,7.47198
8576.032,7.599731
8581.818,7.747297
8587.604,7.920036
8593.389,8.120169
8599.175,8.282687
8604.96,8.454968
8610.745,8.652502
8616.531,8.804449
8622.316,8.982493
8628.102,9.112901
8633.888,9.234835
8639.673,9.341227
8645.458,9.451281
8651.244,9.536557
8657.029,9.623312
8662.814,9.700778
8668.601,9.75448
8674.386,9.827968
8680.172,9.890994
8685.957,9.945085
8691.742,10.02023
8697.528,10.10932
8703.313,10.18422
8709.099,10.28448
8714.885,10.37562
8720.67,10.43987
8726.455,10.52491
8732.241,10.63406
8738.026,10.70441
8743.812,10.77504
8749.598,10.84807
8755.383,10.91316
8761.168,10.96489
8766.954,11.01488
8772.739,11.06804
8778.524,11.11779
8784.311,11.14894
8790.096,11.20447
8795.881,11.23332
8801.667,11.26567
8807.452,11.30645
8813.237,11.31987
8819.023,11.33789
8824.809,11.36038
8830.595,11.38861
8836.38,11.39066
8842.165,11.3931
8847.951,11.40677
8853.736,11.42511
8859.521,11.44078
8865.308,11.45378
8871.093,11.46265
8876.878,11.44789
8882.664,11.45976
8888.449,11.45051
8894.234,11.46956
8900.021,11.48586
8905.806,11.47725
8911.591,11.46971
8917.377,11.46432
8923.162,11.46577
8928.947,11.47819
8934.733,11.45716
8940.519,11.45681
8946.304,11.4563
8952.09,11.47728
8957.875,11.43667
8963.661,11.44718
8969.446,11.46679
8975.231,11.45491
8981.018,11.47274
8986.803,11.46652
8992.588,11.47904
8998.374,11.47528
9004.159,11.4931
9009.944,11.50348
9015.73,11.49292
9021.516,11.51385
9027.301,11.51455
9033.087,11.52729
9038.872,11.51511
9044.657,11.531
9050.443,11.52158
9056.229,11.53139
9062.014,11.55163
9067.8,11.53775
9073.585,11.54106
9079.37,11.55066
9085.156,11.56617
9090.941,11.55751
9096.727,11.55488
9102.513,11.57545
9108.298,11.55918
9114.084,11.56203
9119.869,11.55764
9125.654,11.55322
9131.44,11.54831
9137.226,11.55297
9143.011,11.53774
9148.797,11.54101
9154.582,11.54229
9160.367,11.5344
9166.153,11.526
9171.938,11.51218
9177.724,11.5271
9183.51,11.5146
9189.295,11.49209
9195.08,11.48987
9200.866,11.49493
9206.651,11.48003
9212.437,11.48653
9218.223,11.46034
9224.008,11.45523
9229.793,11.44317
9235.579,11.45534
9241.364,11.44599
9247.15,11.44685
9252.936,11.44842
9258.721,11.43148
9264.507,11.42577
9270.292,11.42639
9276.077,11.41311
9281.863,11.41957
9287.648,11.39185
9293.434,11.40817
9299.22,11.41535
9305.005,11.39731
9310.79,11.41026
9316.576,11.40657
9322.361,11.41844
9328.146,11.41796
9333.933,11.39779
9339.718,11.4114
9345.503,11.40375
9351.289,11.40379
9357.074,11.36612
9362.859,11.37374
9368.646,11.35489
9374.431,11.33798
9380.217,11.3565
9386.002,11.35521
9391.787,11.31864
9397.573,11.32708
9403.358,11.29484
9409.144,11.28697
9414.93,11.28641
9420.715,11.26529
9426.5,11.24326
9432.286,11.22991
9438.071,11.23506
9443.856,11.20628
9449.643,11.1975
9455.428,11.17692
9461.213,11.1426
9466.999,11.13724
9472.784,11.1234
9478.569,11.11136
9484.355,11.12166
9490.141,11.10878
9495.926,11.09306
9501.712,11.09396
9507.497,11.09956
9513.282,11.0818
9519.068,11.06126
9524.854,11.05449
9530.64,11.04275
9536.425,11.03395
9542.21,11.0149
9547.996,10.99692
9553.781,10.99458
9559.566,10.98372
9565.353,10.97665
9571.138,10.94569
9576.923,10.94972
9582.709,10.91549
9588.494,10.94185
9594.279,10.91651
9600.065,10.93005
9605.851,10.94937
9611.636,10.95122
9617.422,10.96838
9623.207,10.99709
9628.992,10.99198
9634.778,11.02831
9640.563,11.03395
9646.349,11.0788
9652.135,11.0934
9657.92,11.12017
9663.706,11.12828
9669.491,11.1711
9675.276,11.19698
9681.063,11.203
9686.848,11.24587
9692.633,11.25357
9698.419,11.26941
9704.204,11.27896
9709.989,11.33629
9715.775,11.36948
9721.561,11.37887
9727.346,11.38813
9733.132,11.41181
9738.917,11.44202
9744.702,11.45784
9750.488,11.50225
9756.273,11.50676
9762.059,11.52758
9767.845,11.50265
9773.63,11.50485
9779.415,11.53005
9785.201,11.52386
9790.986,11.55506
9796.771,11.54217
9802.558,11.54595
9808.343,11.54336
9814.129,11.54851
9819.914,11.5519
9825.699,11.52676
9831.485,11.58985
9837.271,11.60687
9843.056,11.5951
9848.842,11.61162
9854.627,11.64734
9860.412,11.67215
9866.198,11.69306
9871.983,11.69527
9877.769,11.77661
9883.555,11.80724
9889.34,11.80416
9895.125,11.84424
9900.911,11.83625
9906.696,11.85957
9912.481,11.87382
9918.268,11.91498
9924.053,11.94171
9929.838,11.91789
9935.624,11.93747
9941.409,11.97729
9947.195,11.99597
9952.98,12.01276
9958.766,12.04589
9964.552,12.03675
9970.337,12.10439
9976.122,12.06833
9981.908,12.08665
9987.693,12.10461
9993.479,12.12264
9999.265,12.1249
10005.05,12.12332
10010.83,12.14048
10016.62,12.16446
10022.41,12.16119
10028.19,12.15899
10033.98,12.17602
10039.76,12.19967
10045.55,12.23842
10051.33,12.22378
10057.12,12.25632
10062.9,12.24953
10068.69,12.24251
10074.48,12.274
10080.26,12.28754
10086.05,12.29777
10091.83,12.28191
10097.62,12.31336
10103.4,12.3211
10109.19,12.33189
10114.97,12.30541
10120.76,12.3285
10126.54,12.35372
10132.33,12.35522
10138.12,12.37501
10143.9,12.35228
10149.69,12.35744
10155.47,12.34756
10161.26,12.35508
10167.04,12.36416
10172.83,12.38391
10178.61,12.33671
10184.4,12.38187
10190.19,12.38514
10195.97,12.37812
10201.76,12.35313
10207.54,12.38937
10213.33,12.36982
10219.11,12.39133
10224.9,12.39784
10230.68,12.39581
10236.47,12.39242
10242.25,12.3559
10248.04,12.34386
10253.83,12.37483
10259.61,12.37644
10265.4,12.37896
10271.18,12.38364
10276.97,12.3615
10282.75,12.3458
10288.54,12.38662
10294.32,12.36136
10300.11,12.36819
10305.9,12.36406
10311.68,12.34743
10317.47,12.33785
10323.25,12.35026
10329.04,12.33506
10334.82,12.36098
10340.61,12.36228
10346.39,12.35017
10352.18,12.32859
10357.96,12.33793
10363.75,12.34759
10369.54,12.32108
10375.32,12.34326
10381.11,12.32867
10386.89,12.32307
10392.68,12.30877
10398.46,12.31324
10404.25,12.29844
10410.03,12.31018
10415.82,12.26811
10421.61,12.3011
10427.39,12.28144
10433.18,12.26777
10438.96,12.24071
10444.75,12.2745
10450.53,12.21298
10456.32,12.25571
10462.1,12.18622
10467.89,12.21695
10473.67,12.19375
10479.46,12.19306
10485.25,12.1819
10491.03,12.19198
10496.82,12.16019
10502.6,12.10245
10508.39,12.10508
10514.17,12.07683
10519.96,12.06004
10525.74,12.01717
10531.53,11.99982
10537.32,11.98275
10543.1,11.96451
10548.89,11.90366
10554.67,11.8893
10560.46,11.80249
10566.24,11.85812
10572.03,11.75489
10577.81,11.65913
10583.6,11.64917
10589.38,11.52694
10595.17,11.51261
10600.96,11.46566
10606.74,11.38182
10612.53,11.29884
10618.31,11.27437
10624.1,11.18148
10629.88,11.09475
10635.67,10.95879
10641.45,10.90422
10647.24,10.79077
10653.03,10.74253
10658.81,10.6253
10664.6,10.587
10670.38,10.51369
10676.17,10.41364
10681.95,10.36203
10687.74,10.30208
10693.52,10.25733
10699.31,10.20197
10705.09,10.21383
10710.88,10.17131
10716.67,10.14018
10722.45,10.13764
10728.24,10.11989
10734.02,10.11125
10739.81,10.13635
10745.59,10.11018
10751.38,10.19379
10757.16,10.23404
10762.95,10.24716
10768.74,10.3118
10774.52,10.38864
10780.31,10.40211
10786.09,10.47567
10791.88,10.51801
10797.66,10.51727
10803.45,10.61174
10809.23,10.66786
10815.02,10.77353
10820.8,10.81956
10826.59,10.82346
10832.38,10.8827
10838.16,11.0513
10843.95,11.07029
10849.73,11.07511
10855.52,11.07335
10861.3,11.23285
10867.09,11.3203
10872.87,11.42348
10878.66,11.42042
10884.45,11.44361
10890.23,11.53895
10896.02,11.56223
10901.8,11.61834
10907.59,11.64924
10913.37,11.74034
10919.16,11.75062
10924.94,11.79797
10930.73,11.76345
10936.51,11.93725
10942.3,11.85978
10948.09,11.9788
10953.87,11.97844
10959.66,12.10425
10965.44,12.08418
10971.23,12.1511
10977.01,12.14378
10982.8,12.20302
10988.58,12.22007
10994.37,12.22063
11000.16,12.32084
11005.94,12.337
11011.73,12.36295
11017.51,12.40016
11023.3,12.44108
11029.08,12.44567
11034.87,12.3861
11040.65,12.53583
11046.44,12.46771
11052.22,12.48888
11058.01,12.54441
11063.79,12.65956
11069.58,12.60013
11075.37,12.71137
11081.15,12.60202
11086.94,12.54727
11092.72,12.57941
11098.51,12.66026
11104.29,12.61066
11110.08,12.6398
11115.87,12.69343
11121.65,12.6766
11127.44,12.70776
11133.22,12.59792
11139.01,12.65082
11144.79,12.78177
11150.58,12.676
11156.36,12.78697
11162.15,12.8281
11167.93,12.7422
11173.72,12.77769
11179.5,12.76281
11185.29,12.81367
11191.08,12.84687
11196.86,12.86608
11202.65,12.89086
11208.43,12.92821
11214.22,12.91058
11220.0,12.89693
11225.79,12.92431
11231.58,12.98735
11237.36,12.9352
11243.15,12.93022
11248.93,13.05893
11254.72,13.07427
11260.5,13.13501
11266.29,13.05863
11272.07,13.08099
11277.86,13.04383
11283.64,13.13916
11289.43,13.11547
11295.21,13.07685
11301.0,13.14005
11306.79,13.13342
11312.57,13.15714
11318.36,13.13159
11324.14,13.12945
11329.93,13.27591
11335.71,13.22759
11341.5,13.13016
11347.28,13.33706
11353.07,13.35836
11358.86,13.20597
11364.64,13.14526
11370.43,13.13471
11376.21,13.22081
11382.0,13.30971
11387.78,13.27981
11393.57,13.327
11399.35,13.24966
11405.14,13.35681
11410.92,13.20814
11416.71,13.31924
11422.5,13.31434
11428.28,13.2955
11434.07,13.34603
11439.85,13.3904
11445.64,13.26956
11451.42,13.46048
11457.21,13.33785
11462.99,13.32937
11468.78,13.34563
11474.57,13.36293
11480.35,13.46741
11486.14,13.36634
11491.92,13.48636
11497.71,13.4011
11503.49,13.48009
11509.28,13.40753
11515.06,13.45831
11520.85,13.49959
11526.63,13.49103
11532.42,13.49094
11538.21,13.53014
11543.99,13.54188
11549.78,13.56424
11555.56,13.4159
11561.35,13.50519
11567.13,13.45484
11572.92,13.42144
11578.7,13.54885
11584.49,13.51489
11590.28,13.45778
11596.06,13.54026
11601.85,13.58612
11607.63,13.41747
11613.42,13.53675
11619.2,13.4425
11624.99,13.52082
11630.77,13.47009
11636.56,13.53492
11642.34,13.51386
11648.13,13.49254
11653.92,13.56446
11659.7,13.68396
11665.49,13.45454
11671.27,13.66416
11677.06,13.58462
11682.84,13.54042
11688.63,13.55517
11694.41,13.51824
11700.2,13.53005
11705.99,13.52377
11711.77,13.54481
11717.56,13.65913
11723.34,13.50341
11729.13,13.49658
11734.91,13.56643
11740.7,13.54686
11746.48,13.65721
11752.27,13.53533
11758.05,13.54684
11763.84,13.70876
11769.63,13.51168
11775.41,13.63559
11781.2,13.48685
11786.98,13.4865
11792.77,13.62961
11798.55,13.493
11804.34,13.43559
11810.12,13.55428
11815.91,13.45008
11821.7,13.48462
11827.48,13.44582
11833.27,13.50016
11839.05,13.35357
11844.84,13.43636
11850.62,13.2791
11856.41,13.28212
11862.19,13.41553
11867.98,13.43724
11873.76,13.34557
11879.55,13.35628
11885.34,13.24763
11891.12,13.36437
11896.91,13.31585
11902.69,13.35394
11908.48,13.36252
11914.26,13.21562
11920.05,13.2247
11925.83,13.27069
11931.62,13.31985
11937.41,13.2844
11943.19,13.11616
11948.98,13.26087
11954.76,13.18522
11960.55,13.2593
11966.33,13.06229
11972.12,13.15932
11977.9,13.13002
11983.69,13.18245
11989.47,13.18876
11995.26,13.07223
11999.12,13.16562