File: Data/NIR/H0003LDPE_5.csv
Wavenumber,Intensity
3999.706,3.53465
4005.491,3.527099
4011.277,3.535912
4017.062,3.542158
4022.848,3.542896
4028.633,3.548047
4034.419,3.549748
4040.204,3.554406
4045.99,3.559898
4051.775,3.563788
4057.561,3.568496
4063.346,3.568811
4069.132,3.567362
4074.917,3.5708
4080.703,3.574942
4086.488,3.56802
4092.274,3.574138
4098.059,3.571961
4103.845,3.57959
4109.63,3.580504
4115.416,3.581148
4121.201,3.585643
4126.987,3.583898
4132.772,3.58751
4138.558,3.58648
4144.343,3.587647
4150.129,3.592597
4155.914,3.596685
4161.7,3.59575
4167.485,3.599881
4173.271,3.604395
4179.056,3.612223
4184.842,3.614371
4190.627,3.624504
4196.413,3.634294
4202.198,3.639966
4207.983,3.648305
4213.769,3.65725
4219.555,3.662191
4225.34,3.668053
4231.125,3.676729
4236.911,3.683498
4242.697,3.683064
4248.482,3.678485
4254.268,3.674271
4260.053,3.690431
4265.838,3.69922
4271.624,3.705956
4277.41,3.709986
4283.195,3.71838
4288.98,3.717496
4294.766,3.723514
4300.552,3.726779
4306.337,3.722702
4312.123,3.719763
4317.908,3.703186
4323.693,3.694921
4329.479,3.703231
4335.265,3.710621
4341.05,3.719898
4346.835,3.721692
4352.621,3.736383
4358.407,3.734066
4364.192,3.736358
4369.978,3.742374
4375.763,3.746546
4381.548,3.747233
4387.334,3.747411
4393.12,3.74878
4398.905,3.750216
4404.69,3.757082
4410.476,3.763155
4416.262,3.77515
4422.047,3.788644
4427.833,3.811973
4433.618,3.827528
4439.403,3.861099
4445.189,3.892572
4450.975,3.928398
4456.76,3.969831
4462.545,4.01289
4468.331,4.056467
4474.116,4.098145
4479.902,4.143323
4485.688,4.189023
4491.473,4.234627
4497.258,4.282928
4503.044,4.336018
4508.83,4.386284
4514.615,4.447608
4520.4,4.503251
4526.186,4.55677
4531.971,4.616437
4537.757,4.683013
4543.542,4.743004
4549.328,4.808018
4555.113,4.876146
4560.899,4.944523
4566.685,5.007128
4572.47,5.066725
4578.255,5.110655
4584.041,5.157764
4589.826,5.197518
4595.612,5.233811
4601.397,5.26172
4607.183,5.291544
4612.968,5.322308
4618.754,5.345911
4624.539,5.376731
4630.325,5.402845
4636.11,5.415716
4641.896,5.433066
4647.681,5.432605
4653.467,5.416224
4659.252,5.373039
4665.038,5.330459
4670.823,5.351557
4676.609,5.415441
4682.394,5.479938
4688.18,5.51579
4693.965,5.528941
4699.751,5.536678
4705.536,5.533286
4711.322,5.519957
4717.107,5.505171
4722.893,5.470641
4728.678,5.436021
4734.464,5.418646
4740.249,5.402079
4746.035,5.385349
4751.82,5.367159
4757.605,5.349075
4763.391,5.314301
4769.177,5.274684
4774.962,5.229361
4780.748,5.197398
4786.533,5.188098
4792.319,5.173547
4798.104,5.153808
4803.89,5.126785
4809.675,5.093844
4815.46,5.053853
4821.246,5.01079
4827.032,4.977493
4832.817,4.943381
4838.603,4.902488
4844.388,4.854094
4850.174,4.801921
4855.959,4.756495
4861.745,4.722556
4867.53,4.701332
4873.315,4.697338
4879.101,4.71017
4884.887,4.724239
4890.672,4.74
4896.458,4.754466
4902.243,4.762384
4908.028,4.772523
4913.814,4.773458
4919.6,4.772628
4925.385,4.765082
4931.17,4.764075
4936.956,4.762972
4942.742,4.748073
4948.527,4.716844
4954.313,4.650231
4960.098,4.564968
4965.883,4.530541
4971.669,4.555007
4977.455,4.575967
4983.24,4.601248
4989.025,4.634504
4994.811,4.676251
5000.597,4.727852
5006.382,4.752319
5012.167,4.771739
5017.953,4.77285
5023.738,4.792164
5029.524,4.80984
5035.31,4.820418
5041.095,4.82725
5046.88,4.827849
5052.666,4.816262
5058.451,4.793679
5064.237,4.783469
5070.022,4.784824
5075.808,4.782497
5081.593,4.781727
5087.379,4.770622
5093.165,4.758395
5098.95,4.75318
5104.735,4.757628
5110.521,4.774652
5116.307,4.783528
5122.092,4.793203
5127.877,4.800941
5133.663,4.809128
5139.448,4.798952
5145.234,4.787002
5151.02,4.771751
5156.805,4.758737
5162.59,4.754525
5168.376,4.752559
5174.161,4.753269
5179.947,4.745817
5185.732,4.743482
5191.518,4.741642
5197.303,4.750923
5203.089,4.751812
5208.874,4.759044
5214.66,4.743752
5220.445,4.749412
5226.231,4.764359
5232.016,4.765783
5237.802,4.769634
5243.587,4.789634
5249.373,4.790757
5255.158,4.800855
5260.944,4.797965
5266.729,4.792465
5272.515,4.780125
5278.3,4.785079
5284.086,4.789069
5289.871,4.791284
5295.657,4.774644
5301.442,4.765833
5307.228,4.756675
5313.013,4.757638
5318.799,4.796538
5324.584,4.825792
5330.37,4.82672
5336.155,4.817108
5341.94,4.780772
5347.726,4.741458
5353.512,4.700795
5359.297,4.653717
5365.083,4.620255
5370.868,4.584564
5376.654,4.568576
5382.439,4.540421
5388.225,4.516625
5394.01,4.494485
5399.796,4.450047
5405.581,4.417696
5411.367,4.388308
5417.152,4.321968
5422.938,4.301912
5428.723,4.29562
5434.509,4.278215
5440.294,4.271863
5446.08,4.26286
5451.865,4.243482
5457.65,4.23855
5463.436,4.228539
5469.222,4.219586
5475.007,4.211697
5480.792,4.18243
5486.578,4.172864
5492.363,4.172875
5498.149,4.167096
5503.935,4.168666
5509.72,4.172915
5515.505,4.180645
5521.291,4.184175
5527.077,4.178269
5532.862,4.179278
5538.647,4.178754
5544.433,4.174796
5550.219,4.169743
5556.004,4.172383
5561.79,4.17797
5567.575,4.192326
5573.36,4.218861
5579.146,4.234914
5584.932,4.257689
5590.717,4.258153
5596.502,4.254747
5602.288,4.237575
5608.073,4.209839
5613.859,4.178823
5619.645,4.163316
5625.43,4.136499
5631.215,4.116407
5637.001,4.098153
5642.786,4.077565
5648.572,4.044299
5654.357,4.015671
5660.143,4.00161
5665.929,3.999364
5671.714,4.005846
5677.5,4.016103
5683.285,4.028639
5689.07,4.039711
5694.856,4.058817
5700.642,4.081135
5706.427,4.10655
5712.212,4.127527
5717.998,4.133165
5723.783,4.110807
5729.569,4.069647
5735.354,4.048865
5741.14,4.035171
5746.925,4.024928
5752.711,4.011785
5758.496,4.004836
5764.282,3.99841
5770.067,3.988977
5775.853,3.989798
5781.638,3.992276
5787.424,3.996293
5793.209,3.999209
5798.995,4.004564
5804.78,4.004902
5810.566,4.009838
5816.352,4.017844
5822.137,4.025199
5827.922,4.038745
5833.708,4.05094
5839.493,4.065717
5845.279,4.092842
5851.064,4.136534
5856.85,4.197297
5862.635,4.29305
5868.421,4.408498
5874.206,4.578053
5879.992,4.779551
5885.777,4.997849
5891.563,5.190372
5897.348,5.332063
5903.134,5.452429
5908.919,5.611008
5914.705,5.850451
5920.49,6.151822
5926.276,6.501351
5932.061,6.840743
5937.847,7.153697
5943.632,7.426011
5949.418,7.662436
5955.203,7.891781
5960.989,8.134497
5966.774,8.376338
5972.56,8.601995
5978.345,8.811985
5984.131,9.004292
5989.916,9.197706
5995.702,9.363928
6001.487,9.52268
6007.272,9.676638
6013.058,9.823821
6018.844,9.963664
6024.629,10.09641
6030.415,10.2149
6036.2,10.32148
6041.985,10.41986
6047.771,10.51834
6053.557,10.60219
6059.342,10.68603
6065.128,10.75625
6070.913,10.82815
6076.698,10.88839
6082.484,10.93933
6088.27,10.98909
6094.055,11.02514
6099.841,11.05757
6105.626,11.10107
6111.412,11.13135
6117.197,11.17426
6122.982,11.22774
6128.768,11.27797
6134.554,11.34456
6140.339,11.40556
6146.125,11.46391
6151.91,11.52361
6157.695,11.58713
6163.481,11.64098
6169.267,11.70249
6175.052,11.76552
6180.837,11.8103
6186.623,11.85139
6192.408,11.88616
6198.194,11.92342
6203.979,11.95034
6209.765,11.98398
6215.551,12.00648
6221.336,12.03833
6227.121,12.05767
6232.907,12.0786
6238.692,12.09044
6244.478,12.11176
6250.264,12.11931
6256.049,12.126
6261.834,12.13888
6267.62,12.15022
6273.405,12.16489
6279.191,12.1689
6284.977,12.18272
6290.762,12.18487
6296.547,12.19184
6302.333,12.19732
6308.118,12.20107
6313.904,12.20092
6319.689,12.19528
6325.475,12.18578
6331.26,12.16891
6337.046,12.15581
6342.831,12.13288
6348.617,12.10896
6354.402,12.08039
6360.188,12.0513
6365.974,12.0043
6371.759,11.94333
6377.544,11.88923
6383.33,11.86874
6389.115,11.85062
6394.901,11.82945
6400.687,11.79874
6406.472,11.73034
6412.257,11.65326
6418.043,11.59087
6423.828,11.54628
6429.614,11.51769
6435.399,11.48069
6441.185,11.41606
6446.97,11.32378
6452.756,11.21054
6458.541,11.09527
6464.327,10.90266
6470.112,10.62204
6475.897,10.30087
6481.684,10.1113
6487.469,10.11777
6493.254,10.20507
6499.04,10.30016
6504.825,10.39262
6510.61,10.46429
6516.396,10.52261
6522.182,10.57042
6527.967,10.61389
6533.753,10.64567
6539.538,10.67618
6545.324,10.69506
6551.109,10.71631
6556.895,10.74011
6562.68,10.75807
6568.466,10.79507
6574.251,10.8242
6580.037,10.84449
6585.822,10.86139
6591.607,10.87123
6597.393,10.87691
6603.179,10.86933
6608.964,10.86866
6614.75,10.86574
6620.535,10.84881
6626.32,10.83346
6632.106,10.81288
6637.892,10.79018
6643.677,10.75829
6649.463,10.72915
6655.248,10.69374
6661.034,10.65662
6666.819,10.61411
6672.604,10.57294
6678.39,10.52326
6684.176,10.47421
6689.961,10.42097
6695.747,10.37026
6701.532,10.31146
6707.317,10.24566
6713.103,10.18337
6718.889,10.11262
6724.674,10.04381
6730.459,9.983279
6736.245,9.919142
6742.03,9.850626
6747.816,9.79219
6753.602,9.724758
6759.387,9.660371
6765.173,9.586263
6770.958,9.511022
6776.743,9.431762
6782.529,9.320107
6788.314,9.213967
6794.1,9.089963
6799.886,8.971342
6805.671,8.846754
6811.457,8.730559
6817.242,8.609794
6823.027,8.483776
6828.813,8.35078
6834.599,8.2457
6840.384,8.176754
6846.169,8.119884
6851.955,8.056507
6857.74,7.982358
6863.526,7.916874
6869.312,7.848255
6875.097,7.768538
6880.882,7.683803
6886.668,7.589702
6892.453,7.495338
6898.239,7.406439
6904.024,7.334761
6909.81,7.269745
6915.596,7.200671
6921.381,7.116979
6927.166,7.021995
6932.952,6.903008
6938.737,6.784183
6944.523,6.660284
6950.309,6.591495
6956.094,6.562749
6961.879,6.552087
6967.665,6.544082
6973.45,6.540712
6979.236,6.52677
6985.021,6.509517
6990.807,6.476293
6996.592,6.453146
7002.378,6.395291
7008.163,6.339853
7013.949,6.294852
7019.734,6.237661
7025.52,6.215886
7031.305,6.222057
7037.091,6.232451
7042.876,6.213622
7048.662,6.149734
7054.447,6.022626
7060.232,5.897699
7066.019,5.882296
7071.804,6.009952
7077.589,6.185735
7083.375,6.335627
7089.16,6.441217
7094.946,6.538925
7100.731,6.636605
7106.517,6.761361
7112.302,6.892806
7118.088,7.036206
7123.873,7.117562
7129.659,7.155012
7135.444,7.127131
7141.229,7.033381
7147.015,6.886607
7152.801,6.654015
7158.586,6.300578
7164.372,5.826939
7170.157,5.490231
7175.942,5.484374
7181.729,5.723507
7187.514,6.001364
7193.299,6.306372
7199.085,6.599137
7204.87,6.922654
7210.655,7.190631
7216.441,7.456151
7222.227,7.728833
7228.012,8.021993
7233.798,8.278012
7239.583,8.52037
7245.369,8.749602
7251.154,8.984364
7256.939,9.207575
7262.725,9.459409
7268.511,9.68168
7274.296,9.913384
7280.082,10.1429
7285.867,10.37426
7291.652,10.58928
7297.438,10.7936
7303.224,11.00239
7309.009,11.2182
7314.794,11.40326
7320.58,11.57785
7326.365,11.75309
7332.151,11.84223
7337.937,11.96234
7343.722,12.03949
7349.508,12.11358
7355.293,12.23643
7361.079,12.33532
7366.864,12.454
7372.649,12.55811
7378.435,12.67662
7384.221,12.7739
7390.006,12.85572
7395.792,12.91412
7401.577,12.98179
7407.362,13.01748
7413.148,13.05789
7418.934,13.09676
7424.719,13.11071
7430.504,13.13411
7436.29,13.15919
7442.075,13.16787
7447.861,13.18679
7453.646,13.20073
7459.432,13.21528
7465.218,13.23171
7471.003,13.24182
7476.788,13.23626
7482.574,13.24185
7488.359,13.24238
7494.145,13.24562
7499.931,13.24164
7505.716,13.23306
7511.501,13.23298
7517.287,13.21745
7523.072,13.22035
7528.858,13.21227
7534.644,13.20055
7540.429,13.17752
7546.214,13.17191
7552.0,13.15704
7557.785,13.14215
7563.571,13.12514
7569.356,13.10601
7575.142,13.0881
7580.927,13.06913
7586.713,13.06126
7592.498,13.03649
7598.284,13.0125
7604.069,12.98745
7609.854,12.96713
7615.641,12.93476
7621.426,12.90331
7627.211,12.87548
7632.997,12.83845
7638.782,12.80442
7644.568,12.77934
7650.354,12.74581
7656.139,12.70881
7661.924,12.69156
7667.71,12.66893
7673.495,12.63506
7679.281,12.61893
7685.066,12.59124
7690.852,12.57078
7696.637,12.55542
7702.423,12.54194
7708.208,12.51482
7713.994,12.48924
7719.779,12.46154
7725.564,12.4386
7731.35,12.4178
7737.136,12.40454
7742.921,12.38496
7748.707,12.35365
7754.492,12.32682
7760.277,12.28919
7766.063,12.26634
7771.849,12.23455
7777.634,12.21134
7783.42,12.195
7789.205,12.17429
7794.991,12.16168
7800.776,12.12978
7806.562,12.10179
7812.347,12.07803
7818.133,12.04747
7823.918,12.01372
7829.704,11.98835
7835.489,11.95193
7841.274,11.91861
7847.06,11.8722
7852.846,11.84032
7858.631,11.80134
7864.417,11.74887
7870.202,11.70194
7875.987,11.66103
7881.773,11.6044
7887.559,11.54916
7893.344,11.48427
7899.13,11.41329
7904.915,11.3699
7910.7,11.31603
7916.486,11.24876
7922.271,11.17806
7928.057,11.11148
7933.843,11.03402
7939.628,10.9699
7945.414,10.88119
7951.199,10.80841
7956.984,10.72378
7962.77,10.63064
7968.556,10.52803
7974.341,10.44031
7980.126,10.34979
7985.912,10.25825
7991.697,10.15542
7997.483,10.05961
8003.269,9.939675
8009.054,9.846382
8014.839,9.723961
8020.625,9.611281
8026.41,9.485013
8032.196,9.362513
8037.981,9.226921
8043.767,9.103292
8049.553,8.968419
8055.338,8.817544
8061.124,8.689024
8066.909,8.53895
8072.694,8.397613
8078.48,8.248801
8084.266,8.094704
8090.051,7.942542
8095.836,7.774785
8101.622,7.621539
8107.407,7.448586
8113.192,7.273556
8118.979,7.097308
8124.764,6.915797
8130.55,6.730994
8136.335,6.549536
8142.12,6.396899
8147.906,6.212263
8153.691,6.044383
8159.477,5.857971
8165.263,5.689312
8171.048,5.538097
8176.833,5.390389
8182.619,5.255944
8188.404,5.129967
8194.189,5.024614
8199.976,4.965143
8205.761,4.905531
8211.546,4.852845
8217.332,4.832545
8223.117,4.823295
8228.902,4.811192
8234.688,4.818251
8240.474,4.827259
8246.259,4.840183
8252.045,4.859108
8257.83,4.874237
8263.616,4.915609
8269.401,4.955201
8275.187,5.024986
8280.973,5.072205
8286.758,5.15935
8292.543,5.243943
8298.329,5.331034
8304.114,5.434511
8309.899,5.535527
8315.686,5.626426
8321.471,5.716781
8327.256,5.825162
8333.042,5.922972
8338.827,6.043213
8344.612,6.16156
8350.398,6.303076
8356.184,6.417387
8361.969,6.550663
8367.755,6.670732
8373.54,6.793621
8379.325,6.898139
8385.111,6.999663
8390.896,7.09855
8396.683,7.167977
8402.468,7.227874
8408.253,7.270627
8414.039,7.29626
8419.824,7.332854
8425.609,7.376454
8431.396,7.46358
8437.181,7.622063
8442.966,7.77
8448.752,7.93921
8454.537,8.115003
8460.322,8.258752
8466.108,8.394335
8471.894,8.534987
8477.679,8.672901
8483.465,8.822402
8489.25,8.949336
8495.035,9.062728
8500.821,9.174389
8506.606,9.248525
8512.392,9.305749
8518.178,9.370852
8523.963,9.438465
8529.748,9.503953
8535.534,9.538507
8541.319,9.515352
8547.105,9.445246
8552.891,9.328188
8558.676,9.21441
8564.462,9.155265
8570.247,9.250928
8576.032,9.396752
8581.818,9.576536
8587.604,9.780597
8593.389,9.986025
8599.175,10.24592
8604.96,10.45735
8610.745,10.68229
8616.531,10.88397
8622.316,11.09151
8628.102,11.28633
8633.888,11.43302
8639.673,11.58056
8645.458,11.73286
8651.244,11.83817
8657.029,11.95227
8662.814,12.03762
8668.601,12.13856
8674.386,12.216
8680.172,12.30573
8685.957,12.38645
8691.742,12.47009
8697.528,12.58246
8703.313,12.69782
8709.099,12.81765
8714.885,12.9235
8720.67,13.05966
8726.455,13.16732
8732.241,13.27053
8738.026,13.38648
8743.812,13.49571
8749.598,13.58763
8755.383,13.67002
8761.168,13.76182
8766.954,13.83428
8772.739,13.90022
8778.524,13.95555
8784.311,14.01975
8790.096,14.08278
8795.881,14.1118
8801.667,14.16287
8807.452,14.1922
8813.237,14.24205
8819.023,14.2637
8824.809,14.30398
8830.595,14.3115
8836.38,14.33796
8842.165,14.37379
8847.951,14.35763
8853.736,14.37463
8859.521,14.38229
8865.308,14.41286
8871.093,14.40723
8876.878,14.42338
8882.664,14.42682
8888.449,14.43567
8894.234,14.43901
8900.021,14.4404
8905.806,14.42455
8911.591,14.40954
8917.377,14.41903
8923.162,14.41237
8928.947,14.4157
8934.733,14.41728
8940.519,14.4102
8946.304,14.39781
8952.09,14.39619
8957.875,14.39727
8963.661,14.40508
8969.446,14.40339
8975.231,14.40887
8981.018,14.4226
8986.803,14.41247
8992.588,14.43338
8998.374,14.43276
9004.159,14.4472
9009.944,14.42027
9015.73,14.44641
9021.516,14.44738
9027.301,14.46185
9033.087,14.45141
9038.872,14.46098
9044.657,14.48139
9050.443,14.48018
9056.229,14.47466
9062.014,14.48638
9067.8,14.48675
9073.585,14.47971
9079.37,14.47293
9085.156,14.50069
9090.941,14.50098
9096.727,14.49759
9102.513,14.49195
9108.298,14.50219
9114.084,14.49304
9119.869,14.47647
9125.654,14.48645
9131.44,14.48941
9137.226,14.47679
9143.011,14.44755
9148.797,14.45292
9154.582,14.44239
9160.367,14.44791
9166.153,14.42102
9171.938,14.42576
9177.724,14.42194
9183.51,14.4101
9189.295,14.37559
9195.08,14.36197
9200.866,14.36739
9206.651,14.34816
9212.437,14.35969
9218.223,14.32646
9224.008,14.32411
9229.793,14.32762
9235.579,14.30324
9241.364,14.32061
9247.15,14.29984
9252.936,14.2959
9258.721,14.28352
9264.507,14.24938
9270.292,14.26811
9276.077,14.241
9281.863,14.23069
9287.648,14.20629
9293.434,14.21407
9299.22,14.21887
9305.005,14.2364
9310.79,14.21206
9316.576,14.22935
9322.361,14.20733
9328.146,14.22703
9333.933,14.21987
9339.718,14.19416
9345.503,14.19319
9351.289,14.18741
9357.074,14.16883
9362.859,14.14594
9368.646,14.15548
9374.431,14.13567
9380.217,14.11174
9386.002,14.11241
9391.787,14.087
9397.573,14.05791
9403.358,14.04154
9409.144,14.03845
9414.93,14.02675
9420.715,13.99091
9426.5,13.99326
9432.286,13.94899
9438.071,13.94669
9443.856,13.9158
9449.643,13.91051
9455.428,13.85971
9461.213,13.83238
9466.999,13.8162
9472.784,13.81683
9478.569,13.77562
9484.355,13.7959
9490.141,13.74575
9495.926,13.7364
9501.712,13.7439
9507.497,13.70957
9513.282,13.70867
9519.068,13.69643
9524.854,13.68578
9530.64,13.6674
9536.425,13.66098
9542.21,13.61874
9547.996,13.58524
9553.781,13.57883
9559.566,13.58625
9565.353,13.5549
9571.138,13.53987
9576.923,13.51947
9582.709,13.49605
9588.494,13.49131
9594.279,13.4617
9600.065,13.49444
9605.851,13.50029
9611.636,13.52747
9617.422,13.53935
9623.207,13.56549
9628.992,13.58685
9634.778,13.59539
9640.563,13.62777
9646.349,13.62805
9652.135,13.64181
9657.92,13.71349
9663.706,13.72444
9669.491,13.77245
9675.276,13.77997
9681.063,13.79924
9686.848,13.81049
9692.633,13.87135
9698.419,13.88929
9704.204,13.91754
9709.989,13.96766
9715.775,13.98316
9721.561,13.99614
9727.346,14.03635
9733.132,14.05924
9738.917,14.08969
9744.702,14.11273
9750.488,14.13435
9756.273,14.14429
9762.059,14.17161
9767.845,14.20617
9773.63,14.19518
9779.415,14.21588
9785.201,14.19049
9790.986,14.20564
9796.771,14.20248
9802.558,14.17779
9808.343,14.19764
9814.129,14.18214
9819.914,14.20869
9825.699,14.21175
9831.485,14.22034
9837.271,14.21752
9843.056,14.26357
9848.842,14.29716
9854.627,14.33126
9860.412,14.33862
9866.198,14.3519
9871.983,14.39784
9877.769,14.43277
9883.555,14.42865
9889.34,14.49315
9895.125,14.50206
9900.911,14.55277
9906.696,14.56079
9912.481,14.56542
9918.268,14.61089
9924.053,14.63283
9929.838,14.67856
9935.624,14.69081
9941.409,14.73327
9947.195,14.71602
9952.98,14.74235
9958.766,14.78188
9964.552,14.80191
9970.337,14.80387
9976.122,14.81853
9981.908,14.82985
9987.693,14.85151
9993.479,14.84111
9999.265,14.85506
10005.05,14.88292
10010.83,14.90695
10016.62,14.8922
10022.41,14.90681
10028.19,14.93355
10033.98,14.95864
10039.76,14.99352
10045.55,14.95743
10051.33,15.00532
10057.12,15.00046
10062.9,15.02111
10068.69,15.0394
10074.48,15.01942
10080.26,15.05988
10086.05,15.06338
10091.83,15.05617
10097.62,15.05517
10103.4,15.07903
10109.19,15.04021
10114.97,15.0798
10120.76,15.08099
10126.54,15.10455
10132.33,15.09185
10138.12,15.09401
10143.9,15.11547
10149.69,15.08896
10155.47,15.10653
10161.26,15.09697
10167.04,15.0963
10172.83,15.11691
10178.61,15.0979
10184.4,15.08251
10190.19,15.08733
10195.97,15.1058
10201.76,15.10209
10207.54,15.11726
10213.33,15.16475
10219.11,15.12345
10224.9,15.13669
10230.68,15.13678
10236.47,15.10684
10242.25,15.09539
10248.04,15.12382
10253.83,15.1307
10259.61,15.08561
10265.4,15.12218
10271.18,15.06227
10276.97,15.07699
10282.75,15.0444
10288.54,15.09097
10294.32,15.06167
10300.11,15.04478
10305.9,15.08064
10311.68,15.05812
10317.47,15.06027
10323.25,15.1078
10329.04,15.04448
10334.82,15.02197
10340.61,15.04899
10346.39,15.01714
10352.18,15.04362
10357.96,14.99349
10363.75,15.02619
10369.54,14.99838
10375.32,14.97665
10381.11,14.99147
10386.89,14.98979
10392.68,14.99166
10398.46,14.94887
10404.25,14.98016
10410.03,14.91055
10415.82,14.96088
10421.61,14.96944
10427.39,14.84848
10433.18,14.8938
10438.96,14.87447
10444.75,14.8743
10450.53,14.84126
10456.32,14.86161
10462.1,14.79903
10467.89,14.79242
10473.67,14.78792
10479.46,14.79894
10485.25,14.76223
10491.03,14.6967
10496.82,14.65352
10502.6,14.62594
10508.39,14.61774
10514.17,14.60606
10519.96,14.54207
10525.74,14.51279
10531.53,14.44002
10537.32,14.41389
10543.1,14.43225
10548.89,14.35504
10554.67,14.30566
10560.46,14.22571
10566.24,14.16744
10572.03,14.16609
10577.81,14.0298
10583.6,13.97437
10589.38,13.92111
10595.17,13.86005
10600.96,13.77209
10606.74,13.68149
10612.53,13.60403
10618.31,13.49118
10624.1,13.39852
10629.88,13.25728
10635.67,13.18987
10641.45,13.06119
10647.24,12.98501
10653.03,12.85277
10658.81,12.7591
10664.6,12.64462
10670.38,12.55448
10676.17,12.44352
10681.95,12.36273
10687.74,12.29503
10693.52,12.27705
10699.31,12.15674
10705.09,12.16449
10710.88,12.10567
10716.67,12.10892
10722.45,12.08792
10728.24,12.00991
10734.02,12.0381
10739.81,12.11771
10745.59,12.11047
10751.38,12.1503
10757.16,12.13866
10762.95,12.21593
10768.74,12.27053
10774.52,12.26322
10780.31,12.38997
10786.09,12.42322
10791.88,12.4682
10797.66,12.55622
10803.45,12.63197
10809.23,12.65815
10815.02,12.7261
10820.8,12.79552
10826.59,12.86342
10832.38,12.96011
10838.16,13.0556
10843.95,13.13756
10849.73,13.25369
10855.52,13.30029
10861.3,13.32508
10867.09,13.44186
10872.87,13.48631
10878.66,13.5793
10884.45,13.57166
10890.23,13.63071
10896.02,13.75528
10901.8,13.8222
10907.59,13.82033
10913.37,13.94103
10919.16,13.98769
10924.94,14.05141
10930.73,14.01717
10936.51,14.12438
10942.3,14.13777
10948.09,14.18923
10953.87,14.23581
10959.66,14.40924
10965.44,14.39176
10971.23,14.35332
10977.01,14.48453
10982.8,14.48722
10988.58,14.62038
10994.37,14.62741
11000.16,14.60976
11005.94,14.65463
11011.73,14.65612
11017.51,14.7552
11023.3,14.82384
11029.08,14.75048
11034.87,14.81519
11040.65,14.87791
11046.44,14.82022
11052.22,14.90369
11058.01,14.94299
11063.79,14.84805
11069.58,14.94368
11075.37,15.00293
11081.15,15.0172
11086.94,14.98726
11092.72,15.02043
11098.51,15.08827
11104.29,15.03308
11110.08,15.04801
11115.87,15.0607
11121.65,15.05183
11127.44,15.02093
11133.22,15.12319
11139.01,15.06448
11144.79,15.1692
11150.58,15.15301
11156.36,15.13718
11162.15,15.1397
11167.93,15.18055
11173.72,15.19691
11179.5,15.24796
11185.29,15.22178
11191.08,15.25877
11196.86,15.24584
11202.65,15.30515
11208.43,15.37155
11214.22,15.39491
11220.0,15.32485
11225.79,15.53144
11231.58,15.50043
11237.36,15.43855
11243.15,15.47249
11248.93,15.42387
11254.72,15.56019
11260.5,15.50438
11266.29,15.47638
11272.07,15.5907
11277.86,15.47224
11283.64,15.49672
11289.43,15.50318
11295.21,15.62667
11301.0,15.54754
11306.79,15.57892
11312.57,15.61877
11318.36,15.54813
11324.14,15.57502
11329.93,15.74368
11335.71,15.59091
11341.5,15.69058
11347.28,15.66771
11353.07,15.57639
11358.86,15.57825
11364.64,15.6629
11370.43,15.62711
11376.21,15.71
11382.0,15.63577
11387.78,15.7071
11393.57,15.69247
11399.35,15.71873
11405.14,15.69384
11410.92,15.73741
11416.71,15.6227
11422.5,15.74899
11428.28,15.82766
11434.07,15.78097
11439.85,15.78501
11445.64,15.82536
11451.42,15.8088
11457.21,15.84844
11462.99,15.84812
11468.78,15.89936
11474.57,15.8624
11480.35,15.84359
11486.14,15.89201
11491.92,15.86031
11497.71,15.88032
11503.49,15.80097
11509.28,15.88798
11515.06,15.87063
11520.85,15.8504
11526.63,15.87774
11532.42,15.9278
11538.21,15.87597
11543.99,15.97575
11549.78,15.93852
11555.56,15.87954
11561.35,15.88005
11567.13,16.01581
11572.92,15.94194
11578.7,15.96884
11584.49,15.90486
11590.28,16.00348
11596.06,15.93681
11601.85,15.96118
11607.63,16.01215
11613.42,15.88826
11619.2,15.97864
11624.99,16.0179
11630.77,16.07393
11636.56,16.06751
11642.34,16.02472
11648.13,16.02023
11653.92,16.06968
11659.7,15.94649
11665.49,16.09228
11671.27,16.11329
11677.06,16.10904
11682.84,15.98957
11688.63,15.99879
11694.41,15.97867
11700.2,15.91409
11705.99,16.00694
11711.77,16.07357
11717.56,15.9297
11723.34,15.95029
11729.13,16.01748
11734.91,16.11107
11740.7,16.00767
11746.48,15.99268
11752.27,15.89335
11758.05,16.00346
11763.84,16.01418
11769.63,16.05434
11775.41,16.08085
11781.2,16.1077
11786.98,16.02305
11792.77,15.99633
11798.55,15.87696
11804.34,15.97516
11810.12,15.88576
11815.91,16.17759
11821.7,16.07519
11827.48,15.90124
11833.27,15.96366
11839.05,16.07093
11844.84,15.9113
11850.62,16.03716
11856.41,16.04713
11862.19,15.87885
11867.98,15.97028
11873.76,15.93797
11879.55,16.12203
11885.34,15.96997
11891.12,15.94884
11896.91,16.04457
11902.69,15.96816
11908.48,15.78337
11914.26,15.93964
11920.05,15.83674
11925.83,15.89375
11931.62,16.00489
11937.41,15.95207
11943.19,15.95967
11948.98,16.01597
11954.76,15.9413
11960.55,15.79669
11966.33,15.9492
11972.12,15.91225
11977.9,15.94435
11983.69,15.75074
11989.47,15.83012
11995.26,15.90283
11999.12,15.93708