File: Data/NIR/H0002LDPE_5.csv
Wavenumber,Intensity
3999.706,3.070166
4005.491,3.06946
4011.277,3.075569
4017.062,3.076084
4022.848,3.087103
4028.633,3.086518
4034.419,3.088552
4040.204,3.09031
4045.99,3.103039
4051.775,3.103917
4057.561,3.105699
4063.346,3.108469
4069.132,3.10469
4074.917,3.107421
4080.703,3.116038
4086.488,3.110158
4092.274,3.118077
4098.059,3.119126
4103.845,3.123348
4109.63,3.123425
4115.416,3.125736
4121.201,3.125598
4126.987,3.12716
4132.772,3.126902
4138.558,3.12347
4144.343,3.128064
4150.129,3.132222
4155.914,3.134579
4161.7,3.137086
4167.485,3.140355
4173.271,3.143407
4179.056,3.151617
4184.842,3.151251
4190.627,3.159266
4196.413,3.168778
4202.198,3.172665
4207.983,3.178679
4213.769,3.182948
4219.555,3.190144
4225.34,3.191888
4231.125,3.19911
4236.911,3.203902
4242.697,3.205086
4248.482,3.207102
4254.268,3.207508
4260.053,3.218805
4265.838,3.219069
4271.624,3.222662
4277.41,3.225585
4283.195,3.231707
4288.98,3.231783
4294.766,3.233071
4300.552,3.234585
4306.337,3.23336
4312.123,3.237118
4317.908,3.230453
4323.693,3.229025
4329.479,3.231246
4335.265,3.234174
4341.05,3.238293
4346.835,3.234065
4352.621,3.244695
4358.407,3.245344
4364.192,3.240321
4369.978,3.242931
4375.763,3.246782
4381.548,3.245567
4387.334,3.243221
4393.12,3.24678
4398.905,3.243767
4404.69,3.248235
4410.476,3.252824
4416.262,3.253508
4422.047,3.260864
4427.833,3.267729
4433.618,3.273267
4439.403,3.290252
4445.189,3.303464
4450.975,3.316559
4456.76,3.336564
4462.545,3.35641
4468.331,3.375305
4474.116,3.389899
4479.902,3.412637
4485.688,3.433127
4491.473,3.453897
4497.258,3.477848
4503.044,3.501013
4508.83,3.524201
4514.615,3.554604
4520.4,3.586426
4526.186,3.611449
4531.971,3.639623
4537.757,3.673331
4543.542,3.707543
4549.328,3.738859
4555.113,3.778639
4560.899,3.814915
4566.685,3.850461
4572.47,3.883992
4578.255,3.909335
4584.041,3.932281
4589.826,3.953268
4595.612,3.971174
4601.397,3.981376
4607.183,4.003138
4612.968,4.019399
4618.754,4.029758
4624.539,4.04897
4630.325,4.063305
4636.11,4.067621
4641.896,4.078828
4647.681,4.079505
4653.467,4.067153
4659.252,4.041566
4665.038,4.020252
4670.823,4.03445
4676.609,4.068889
4682.394,4.106304
4688.18,4.124746
4693.965,4.133684
4699.751,4.139553
4705.536,4.138458
4711.322,4.136818
4717.107,4.125137
4722.893,4.107118
4728.678,4.091598
4734.464,4.080103
4740.249,4.076371
4746.035,4.066076
4751.82,4.054818
4757.605,4.043977
4763.391,4.031111
4769.177,4.004879
4774.962,3.980511
4780.748,3.966511
4786.533,3.963
4792.319,3.955739
4798.104,3.944572
4803.89,3.928018
4809.675,3.915765
4815.46,3.89282
4821.246,3.86904
4827.032,3.85365
4832.817,3.838553
4838.603,3.819301
4844.388,3.791953
4850.174,3.769374
4855.959,3.748999
4861.745,3.731727
4867.53,3.715665
4873.315,3.71804
4879.101,3.729024
4884.887,3.731773
4890.672,3.741337
4896.458,3.750066
4902.243,3.752461
4908.028,3.764017
4913.814,3.761269
4919.6,3.76252
4925.385,3.757536
4931.17,3.757418
4936.956,3.756545
4942.742,3.753139
4948.527,3.736398
4954.313,3.702915
4960.098,3.660514
4965.883,3.641183
4971.669,3.658794
4977.455,3.667326
4983.24,3.682151
4989.025,3.699605
4994.811,3.72289
5000.597,3.751344
5006.382,3.760612
5012.167,3.77142
5017.953,3.770598
5023.738,3.780078
5029.524,3.794858
5035.31,3.79662
5041.095,3.799384
5046.88,3.802763
5052.666,3.797327
5058.451,3.786494
5064.237,3.779534
5070.022,3.779005
5075.808,3.781412
5081.593,3.779094
5087.379,3.776474
5093.165,3.768466
5098.95,3.763843
5104.735,3.767135
5110.521,3.777014
5116.307,3.780339
5122.092,3.788514
5127.877,3.792726
5133.663,3.797484
5139.448,3.792435
5145.234,3.784439
5151.02,3.776643
5156.805,3.77539
5162.59,3.773077
5168.376,3.769252
5174.161,3.769248
5179.947,3.767355
5185.732,3.769833
5191.518,3.76675
5197.303,3.775578
5203.089,3.773283
5208.874,3.778435
5214.66,3.769541
5220.445,3.771398
5226.231,3.785605
5232.016,3.785571
5237.802,3.784642
5243.587,3.798927
5249.373,3.797944
5255.158,3.807345
5260.944,3.806275
5266.729,3.798551
5272.515,3.793312
5278.3,3.795372
5284.086,3.805212
5289.871,3.809077
5295.657,3.791155
5301.442,3.787376
5307.228,3.782539
5313.013,3.787337
5318.799,3.805397
5324.584,3.822616
5330.37,3.824896
5336.155,3.822105
5341.94,3.799501
5347.726,3.781849
5353.512,3.765869
5359.297,3.7287
5365.083,3.715654
5370.868,3.69288
5376.654,3.698965
5382.439,3.680277
5388.225,3.665844
5394.01,3.665468
5399.796,3.633793
5405.581,3.621295
5411.367,3.61458
5417.152,3.571888
5422.938,3.561994
5428.723,3.569492
5434.509,3.559815
5440.294,3.560541
5446.08,3.553171
5451.865,3.533957
5457.65,3.533071
5463.436,3.532413
5469.222,3.529776
5475.007,3.529399
5480.792,3.508029
5486.578,3.50433
5492.363,3.514206
5498.149,3.5051
5503.935,3.506141
5509.72,3.505419
5515.505,3.508398
5521.291,3.512349
5527.077,3.51122
5532.862,3.508028
5538.647,3.505115
5544.433,3.508087
5550.219,3.505315
5556.004,3.507708
5561.79,3.510007
5567.575,3.517379
5573.36,3.528709
5579.146,3.540465
5584.932,3.549574
5590.717,3.549739
5596.502,3.547589
5602.288,3.538688
5608.073,3.523969
5613.859,3.511595
5619.645,3.503919
5625.43,3.492119
5631.215,3.482575
5637.001,3.47241
5642.786,3.466029
5648.572,3.451116
5654.357,3.433924
5660.143,3.430933
5665.929,3.4312
5671.714,3.435724
5677.5,3.434548
5683.285,3.441886
5689.07,3.4501
5694.856,3.460413
5700.642,3.468769
5706.427,3.484528
5712.212,3.49053
5717.998,3.491972
5723.783,3.484316
5729.569,3.461381
5735.354,3.451701
5741.14,3.445759
5746.925,3.444686
5752.711,3.435723
5758.496,3.433518
5764.282,3.435375
5770.067,3.430302
5775.853,3.431519
5781.638,3.435126
5787.424,3.433455
5793.209,3.434769
5798.995,3.439633
5804.78,3.434703
5810.566,3.439018
5816.352,3.442293
5822.137,3.440916
5827.922,3.457756
5833.708,3.462522
5839.493,3.463774
5845.279,3.479676
5851.064,3.496515
5856.85,3.533279
5862.635,3.587768
5868.421,3.654793
5874.206,3.745277
5879.992,3.854356
5885.777,3.970057
5891.563,4.075222
5897.348,4.150956
5903.134,4.224362
5908.919,4.30987
5914.705,4.43531
5920.49,4.5898
5926.276,4.773301
5932.061,4.951608
5937.847,5.113121
5943.632,5.262709
5949.418,5.39268
5955.203,5.530895
5960.989,5.665401
5966.774,5.814473
5972.56,5.952795
5978.345,6.088075
5984.131,6.205271
5989.916,6.327025
5995.702,6.430989
6001.487,6.532883
6007.272,6.633414
6013.058,6.727182
6018.844,6.821157
6024.629,6.903929
6030.415,6.982494
6036.2,7.052628
6041.985,7.118898
6047.771,7.183141
6053.557,7.232466
6059.342,7.290338
6065.128,7.339008
6070.913,7.3798
6076.698,7.4229
6082.484,7.454741
6088.27,7.489593
6094.055,7.511795
6099.841,7.529634
6105.626,7.55878
6111.412,7.577972
6117.197,7.606544
6122.982,7.642473
6128.768,7.6722
6134.554,7.716039
6140.339,7.754807
6146.125,7.790258
6151.91,7.828659
6157.695,7.868772
6163.481,7.908617
6169.267,7.942662
6175.052,7.980825
6180.837,8.006762
6186.623,8.03562
6192.408,8.05924
6198.194,8.0842
6203.979,8.10121
6209.765,8.121625
6215.551,8.13821
6221.336,8.156158
6227.121,8.171493
6232.907,8.185941
6238.692,8.197044
6244.478,8.200401
6250.264,8.213464
6256.049,8.216528
6261.834,8.225427
6267.62,8.229618
6273.405,8.240861
6279.191,8.243213
6284.977,8.252445
6290.762,8.257415
6296.547,8.258096
6302.333,8.264498
6308.118,8.263691
6313.904,8.268879
6319.689,8.261206
6325.475,8.256921
6331.26,8.243757
6337.046,8.232525
6342.831,8.217772
6348.617,8.197613
6354.402,8.180489
6360.188,8.160615
6365.974,8.126601
6371.759,8.077917
6377.544,8.049868
6383.33,8.032201
6389.115,8.02011
6394.901,8.010485
6400.687,7.986325
6406.472,7.940351
6412.257,7.883687
6418.043,7.839583
6423.828,7.810405
6429.614,7.793921
6435.399,7.769071
6441.185,7.7241
6446.97,7.663185
6452.756,7.583381
6458.541,7.510396
6464.327,7.382427
6470.112,7.19097
6475.897,6.971049
6481.684,6.844769
6487.469,6.85253
6493.254,6.920118
6499.04,6.989965
6504.825,7.051208
6510.61,7.106051
6516.396,7.146451
6522.182,7.180288
6527.967,7.212815
6533.753,7.241817
6539.538,7.257246
6545.324,7.276057
6551.109,7.287663
6556.895,7.305745
6562.68,7.323499
6568.466,7.349322
6574.251,7.367621
6580.037,7.38286
6585.822,7.397296
6591.607,7.406214
6597.393,7.404512
6603.179,7.403519
6608.964,7.402858
6614.75,7.404891
6620.535,7.390828
6626.32,7.378732
6632.106,7.367377
6637.892,7.356482
6643.677,7.329165
6649.463,7.31725
6655.248,7.294732
6661.034,7.268295
6666.819,7.243718
6672.604,7.214028
6678.39,7.181549
6684.176,7.152184
6689.961,7.120965
6695.747,7.084921
6701.532,7.047559
6707.317,7.004776
6713.103,6.960412
6718.889,6.914399
6724.674,6.878021
6730.459,6.834549
6736.245,6.794977
6742.03,6.752109
6747.816,6.717144
6753.602,6.672909
6759.387,6.633384
6765.173,6.587711
6770.958,6.538069
6776.743,6.48547
6782.529,6.413056
6788.314,6.349114
6794.1,6.267704
6799.886,6.188015
6805.671,6.115579
6811.457,6.038401
6817.242,5.9676
6823.027,5.885437
6828.813,5.800749
6834.599,5.740513
6840.384,5.694321
6846.169,5.664762
6851.955,5.623432
6857.74,5.580512
6863.526,5.546779
6869.312,5.502451
6875.097,5.458278
6880.882,5.405141
6886.668,5.351939
6892.453,5.297558
6898.239,5.249293
6904.024,5.210139
6909.81,5.172735
6915.596,5.127987
6921.381,5.078869
6927.166,5.028265
6932.952,4.959994
6938.737,4.879974
6944.523,4.818672
6950.309,4.77454
6956.094,4.763592
6961.879,4.761057
6967.665,4.75616
6973.45,4.751906
6979.236,4.74693
6985.021,4.740209
6990.807,4.720778
6996.592,4.693217
7002.378,4.669059
7008.163,4.634507
7013.949,4.607981
7019.734,4.573635
7025.52,4.567438
7031.305,4.56389
7037.091,4.579511
7042.876,4.566864
7048.662,4.529449
7054.447,4.46116
7060.232,4.386208
7066.019,4.38038
7071.804,4.456981
7077.589,4.56588
7083.375,4.652801
7089.16,4.714672
7094.946,4.759825
7100.731,4.819346
7106.517,4.889208
7112.302,4.967869
7118.088,5.054501
7123.873,5.100165
7129.659,5.125724
7135.444,5.111057
7141.229,5.053073
7147.015,4.964034
7152.801,4.828525
7158.586,4.62167
7164.372,4.347132
7170.157,4.161158
7175.942,4.164433
7181.729,4.30926
7187.514,4.47465
7193.299,4.655958
7199.085,4.826772
7204.87,5.021271
7210.655,5.178982
7216.441,5.335332
7222.227,5.493718
7228.012,5.674494
7233.798,5.838585
7239.583,5.989043
7245.369,6.135315
7251.154,6.284147
7256.939,6.428178
7262.725,6.585287
7268.511,6.730929
7274.296,6.880991
7280.082,7.028934
7285.867,7.173851
7291.652,7.31078
7297.438,7.451036
7303.224,7.578288
7309.009,7.72694
7314.794,7.850241
7320.58,7.967736
7326.365,8.08964
7332.151,8.146626
7337.937,8.23844
7343.722,8.289889
7349.508,8.335515
7355.293,8.413609
7361.079,8.479328
7366.864,8.546429
7372.649,8.615148
7378.435,8.688604
7384.221,8.744615
7390.006,8.800776
7395.792,8.850078
7401.577,8.879904
7407.362,8.903658
7413.148,8.931309
7418.934,8.959908
7424.719,8.968029
7430.504,8.979242
7436.29,9.000401
7442.075,9.003583
7447.861,9.017139
7453.646,9.023151
7459.432,9.037468
7465.218,9.048248
7471.003,9.052596
7476.788,9.048684
7482.574,9.051611
7488.359,9.060322
7494.145,9.06133
7499.931,9.057177
7505.716,9.047626
7511.501,9.041667
7517.287,9.040648
7523.072,9.045806
7528.858,9.032844
7534.644,9.023502
7540.429,9.0174
7546.214,9.00601
7552.0,8.988066
7557.785,8.986711
7563.571,8.978692
7569.356,8.960113
7575.142,8.958002
7580.927,8.933995
7586.713,8.93851
7592.498,8.917118
7598.284,8.907736
7604.069,8.892068
7609.854,8.869238
7615.641,8.843002
7621.426,8.819583
7627.211,8.808488
7632.997,8.781693
7638.782,8.758638
7644.568,8.741885
7650.354,8.724595
7656.139,8.694715
7661.924,8.689899
7667.71,8.668126
7673.495,8.637355
7679.281,8.636096
7685.066,8.611857
7690.852,8.597486
7696.637,8.590485
7702.423,8.578898
7708.208,8.564099
7713.994,8.550322
7719.779,8.528194
7725.564,8.50708
7731.35,8.502242
7737.136,8.496397
7742.921,8.481786
7748.707,8.4575
7754.492,8.441605
7760.277,8.4155
7766.063,8.402001
7771.849,8.389457
7777.634,8.353123
7783.42,8.359395
7789.205,8.336934
7794.991,8.334035
7800.776,8.314566
7806.562,8.291135
7812.347,8.279456
7818.133,8.264441
7823.918,8.229503
7829.704,8.223364
7835.489,8.202606
7841.274,8.180449
7847.06,8.145748
7852.846,8.122957
7858.631,8.099113
7864.417,8.072311
7870.202,8.028963
7875.987,7.997319
7881.773,7.967334
7887.559,7.932357
7893.344,7.888207
7899.13,7.831202
7904.915,7.811748
7910.7,7.777716
7916.486,7.73562
7922.271,7.689689
7928.057,7.644378
7933.843,7.58447
7939.628,7.536241
7945.414,7.491292
7951.199,7.442026
7956.984,7.382508
7962.77,7.323076
7968.556,7.26608
7974.341,7.202544
7980.126,7.148057
7985.912,7.086344
7991.697,7.021416
7997.483,6.946651
8003.269,6.871796
8009.054,6.813482
8014.839,6.744018
8020.625,6.67225
8026.41,6.581541
8032.196,6.508111
8037.981,6.418634
8043.767,6.338462
8049.553,6.25568
8055.338,6.169052
8061.124,6.076331
8066.909,5.995996
8072.694,5.90825
8078.48,5.816019
8084.266,5.725945
8090.051,5.636274
8095.836,5.533488
8101.622,5.429101
8107.407,5.330922
8113.192,5.222611
8118.979,5.125013
8124.764,5.016148
8130.55,4.916713
8136.335,4.797415
8142.12,4.722066
8147.906,4.603844
8153.691,4.518333
8159.477,4.413737
8165.263,4.322675
8171.048,4.227387
8176.833,4.154962
8182.619,4.080051
8188.404,4.017788
8194.189,3.950398
8199.976,3.930144
8205.761,3.89509
8211.546,3.867752
8217.332,3.861497
8223.117,3.865033
8228.902,3.848984
8234.688,3.846619
8240.474,3.87101
8246.259,3.863408
8252.045,3.89152
8257.83,3.888325
8263.616,3.917531
8269.401,3.932441
8275.187,3.967191
8280.973,3.996523
8286.758,4.051672
8292.543,4.104565
8298.329,4.155308
8304.114,4.201321
8309.899,4.253287
8315.686,4.309301
8321.471,4.373551
8327.256,4.426938
8333.042,4.483699
8338.827,4.550059
8344.612,4.625964
8350.398,4.716679
8356.184,4.7849
8361.969,4.868673
8367.755,4.932629
8373.54,5.010828
8379.325,5.090163
8385.111,5.149906
8390.896,5.206964
8396.683,5.253474
8402.468,5.281831
8408.253,5.315468
8414.039,5.316062
8419.824,5.32214
8425.609,5.36317
8431.396,5.409907
8437.181,5.49599
8442.966,5.589307
8448.752,5.687308
8454.537,5.790668
8460.322,5.904032
8466.108,5.974396
8471.894,6.06855
8477.679,6.159603
8483.465,6.249469
8489.25,6.325187
8495.035,6.41637
8500.821,6.467013
8506.606,6.528576
8512.392,6.55645
8518.178,6.582306
8523.963,6.640147
8529.748,6.687619
8535.534,6.695782
8541.319,6.68674
8547.105,6.630163
8552.891,6.545514
8558.676,6.471828
8564.462,6.414834
8570.247,6.492145
8576.032,6.595975
8581.818,6.711946
8587.604,6.859909
8593.389,6.994404
8599.175,7.167578
8604.96,7.318935
8610.745,7.473643
8616.531,7.615971
8622.316,7.759354
8628.102,7.888042
8633.888,7.984285
8639.673,8.09153
8645.458,8.197892
8651.244,8.267838
8657.029,8.33919
8662.814,8.411321
8668.601,8.463508
8674.386,8.532136
8680.172,8.58063
8685.957,8.644327
8691.742,8.713826
8697.528,8.788776
8703.313,8.874745
8709.099,8.933352
8714.885,9.017603
8720.67,9.10856
8726.455,9.19483
8732.241,9.267438
8738.026,9.343187
8743.812,9.414518
8749.598,9.475769
8755.383,9.541084
8761.168,9.600387
8766.954,9.646053
8772.739,9.720144
8778.524,9.742537
8784.311,9.790754
8790.096,9.82887
8795.881,9.860695
8801.667,9.881215
8807.452,9.919455
8813.237,9.945191
8819.023,9.95848
8824.809,9.985302
8830.595,9.999093
8836.38,10.00031
8842.165,10.04485
8847.951,10.02023
8853.736,10.03475
8859.521,10.03649
8865.308,10.07644
8871.093,10.07215
8876.878,10.06944
8882.664,10.07516
8888.449,10.0744
8894.234,10.08218
8900.021,10.08066
8905.806,10.08514
8911.591,10.0688
8917.377,10.06687
8923.162,10.07567
8928.947,10.08663
8934.733,10.0785
8940.519,10.07082
8946.304,10.0724
8952.09,10.07961
8957.875,10.07161
8963.661,10.06231
8969.446,10.07394
8975.231,10.08145
8981.018,10.08655
8986.803,10.0967
8992.588,10.09929
8998.374,10.09711
9004.159,10.11531
9009.944,10.10012
9015.73,10.13092
9021.516,10.11146
9027.301,10.13007
9033.087,10.13092
9038.872,10.13542
9044.657,10.14486
9050.443,10.12827
9056.229,10.14831
9062.014,10.14409
9067.8,10.16295
9073.585,10.16092
9079.37,10.15451
9085.156,10.18163
9090.941,10.16794
9096.727,10.17484
9102.513,10.16442
9108.298,10.1635
9114.084,10.17073
9119.869,10.15859
9125.654,10.17484
9131.44,10.16537
9137.226,10.16422
9143.011,10.16155
9148.797,10.15285
9154.582,10.14301
9160.367,10.15571
9166.153,10.12154
9171.938,10.13838
9177.724,10.14346
9183.51,10.12148
9189.295,10.1233
9195.08,10.09942
9200.866,10.10016
9206.651,10.09228
9212.437,10.09341
9218.223,10.09085
9224.008,10.07268
9229.793,10.06649
9235.579,10.06216
9241.364,10.07948
9247.15,10.06428
9252.936,10.06088
9258.721,10.05434
9264.507,10.03716
9270.292,10.04575
9276.077,10.04158
9281.863,10.03016
9287.648,10.01919
9293.434,10.01005
9299.22,10.01716
9305.005,10.01816
9310.79,10.02936
9316.576,10.0205
9322.361,10.02368
9328.146,10.02685
9333.933,10.03914
9339.718,10.01917
9345.503,10.01402
9351.289,10.00133
9357.074,9.994246
9362.859,9.987399
9368.646,9.982155
9374.431,9.974325
9380.217,9.971595
9386.002,9.952161
9391.787,9.939544
9397.573,9.925291
9403.358,9.931767
9409.144,9.907501
9414.93,9.915393
9420.715,9.875872
9426.5,9.880806
9432.286,9.856424
9438.071,9.858692
9443.856,9.830303
9449.643,9.827258
9455.428,9.807639
9461.213,9.773584
9466.999,9.772144
9472.784,9.76561
9478.569,9.744031
9484.355,9.753339
9490.141,9.730108
9495.926,9.713735
9501.712,9.731332
9507.497,9.715237
9513.282,9.695101
9519.068,9.689526
9524.854,9.688745
9530.64,9.667768
9536.425,9.674558
9542.21,9.648381
9547.996,9.630292
9553.781,9.617705
9559.566,9.634375
9565.353,9.582528
9571.138,9.590628
9576.923,9.580473
9582.709,9.548771
9588.494,9.578591
9594.279,9.560611
9600.065,9.555502
9605.851,9.587173
9611.636,9.584281
9617.422,9.584
9623.207,9.631309
9628.992,9.652848
9634.778,9.641639
9640.563,9.66221
9646.349,9.675677
9652.135,9.713754
9657.92,9.75004
9663.706,9.751169
9669.491,9.786125
9675.276,9.806093
9681.063,9.838161
9686.848,9.812825
9692.633,9.879158
9698.419,9.897043
9704.204,9.904815
9709.989,9.931098
9715.775,9.955497
9721.561,9.967277
9727.346,9.99074
9733.132,10.0002
9738.917,10.04795
9744.702,10.05499
9750.488,10.07916
9756.273,10.09872
9762.059,10.08996
9767.845,10.11454
9773.63,10.12119
9779.415,10.15364
9785.201,10.13027
9790.986,10.11683
9796.771,10.11788
9802.558,10.12876
9808.343,10.1376
9814.129,10.13537
9819.914,10.14213
9825.699,10.15035
9831.485,10.15727
9837.271,10.15606
9843.056,10.18463
9848.842,10.22465
9854.627,10.23366
9860.412,10.26973
9866.198,10.26492
9871.983,10.32353
9877.769,10.31991
9883.555,10.33175
9889.34,10.37653
9895.125,10.38111
9900.911,10.4189
9906.696,10.43996
9912.481,10.46499
9918.268,10.45771
9924.053,10.51633
9929.838,10.51641
9935.624,10.54399
9941.409,10.54347
9947.195,10.55263
9952.98,10.57616
9958.766,10.59709
9964.552,10.62044
9970.337,10.62839
9976.122,10.62976
9981.908,10.64844
9987.693,10.67211
9993.479,10.67072
9999.265,10.64869
10005.05,10.68494
10010.83,10.69679
10016.62,10.69097
10022.41,10.71941
10028.19,10.71769
10033.98,10.75761
10039.76,10.77333
10045.55,10.74724
10051.33,10.80722
10057.12,10.81604
10062.9,10.79633
10068.69,10.82344
10074.48,10.80877
10080.26,10.84176
10086.05,10.84089
10091.83,10.8447
10097.62,10.82201
10103.4,10.83728
10109.19,10.83033
10114.97,10.85894
10120.76,10.86592
10126.54,10.88335
10132.33,10.86425
10138.12,10.8922
10143.9,10.88795
10149.69,10.89384
10155.47,10.89756
10161.26,10.8621
10167.04,10.89694
10172.83,10.89809
10178.61,10.91115
10184.4,10.89722
10190.19,10.8917
10195.97,10.88623
10201.76,10.90008
10207.54,10.93247
10213.33,10.93925
10219.11,10.92241
10224.9,10.92671
10230.68,10.91156
10236.47,10.93662
10242.25,10.87141
10248.04,10.92547
10253.83,10.92496
10259.61,10.94033
10265.4,10.92708
10271.18,10.91231
10276.97,10.89952
10282.75,10.90546
10288.54,10.92714
10294.32,10.87941
10300.11,10.90998
10305.9,10.92926
10311.68,10.94847
10317.47,10.89239
10323.25,10.94802
10329.04,10.88126
10334.82,10.88098
10340.61,10.90405
10346.39,10.90226
10352.18,10.87523
10357.96,10.9076
10363.75,10.89993
10369.54,10.83914
10375.32,10.87226
10381.11,10.87124
10386.89,10.85007
10392.68,10.88138
10398.46,10.85106
10404.25,10.90269
10410.03,10.82091
10415.82,10.84939
10421.61,10.86891
10427.39,10.78666
10433.18,10.77347
10438.96,10.78598
10444.75,10.81731
10450.53,10.76768
10456.32,10.81808
10462.1,10.75037
10467.89,10.7744
10473.67,10.76731
10479.46,10.73265
10485.25,10.7379
10491.03,10.70827
10496.82,10.60969
10502.6,10.61439
10508.39,10.61605
10514.17,10.61287
10519.96,10.60792
10525.74,10.55426
10531.53,10.50785
10537.32,10.47104
10543.1,10.49476
10548.89,10.41664
10554.67,10.40483
10560.46,10.3631
10566.24,10.31959
10572.03,10.2638
10577.81,10.21347
10583.6,10.15384
10589.38,10.11952
10595.17,10.0807
10600.96,10.0082
10606.74,9.937963
10612.53,9.89884
10618.31,9.819472
10624.1,9.759534
10629.88,9.670058
10635.67,9.59187
10641.45,9.49773
10647.24,9.471388
10653.03,9.346794
10658.81,9.249518
10664.6,9.214452
10670.38,9.153981
10676.17,9.062538
10681.95,8.994255
10687.74,8.91559
10693.52,8.905757
10699.31,8.883226
10705.09,8.885522
10710.88,8.80648
10716.67,8.811237
10722.45,8.838469
10728.24,8.79066
10734.02,8.82436
10739.81,8.816461
10745.59,8.870611
10751.38,8.889061
10757.16,8.890348
10762.95,8.941039
10768.74,8.955075
10774.52,8.99323
10780.31,9.046809
10786.09,9.078258
10791.88,9.137716
10797.66,9.213419
10803.45,9.282376
10809.23,9.283713
10815.02,9.335131
10820.8,9.395161
10826.59,9.431427
10832.38,9.49212
10838.16,9.567145
10843.95,9.6695
10849.73,9.71978
10855.52,9.739227
10861.3,9.755234
10867.09,9.787772
10872.87,9.889278
10878.66,9.94127
10884.45,9.953801
10890.23,10.03253
10896.02,10.06956
10901.8,10.14653
10907.59,10.16401
10913.37,10.23458
10919.16,10.23171
10924.94,10.345
10930.73,10.31312
10936.51,10.37585
10942.3,10.44531
10948.09,10.43242
10953.87,10.4871
10959.66,10.54943
10965.44,10.56915
10971.23,10.56569
10977.01,10.67465
10982.8,10.64776
10988.58,10.73913
10994.37,10.70099
11000.16,10.7954
11005.94,10.78659
11011.73,10.75762
11017.51,10.80951
11023.3,10.99059
11029.08,10.8649
11034.87,10.84395
11040.65,10.94365
11046.44,10.97432
11052.22,11.01982
11058.01,10.98828
11063.79,10.9775
11069.58,11.01311
11075.37,11.05933
11081.15,11.08905
11086.94,11.04756
11092.72,11.04591
11098.51,11.07993
11104.29,11.15483
11110.08,11.06276
11115.87,11.10601
11121.65,11.13526
11127.44,11.04758
11133.22,11.17181
11139.01,11.19325
11144.79,11.26048
11150.58,11.1948
11156.36,11.19073
11162.15,11.20376
11167.93,11.26846
11173.72,11.25407
11179.5,11.26538
11185.29,11.29452
11191.08,11.26874
11196.86,11.28444
11202.65,11.34136
11208.43,11.31701
11214.22,11.42772
11220.0,11.35589
11225.79,11.43071
11231.58,11.42149
11237.36,11.35972
11243.15,11.404
11248.93,11.47202
11254.72,11.47761
11260.5,11.49357
11266.29,11.48643
11272.07,11.58149
11277.86,11.43694
11283.64,11.51599
11289.43,11.48468
11295.21,11.609
11301.0,11.52496
11306.79,11.5577
11312.57,11.55725
11318.36,11.62233
11324.14,11.52884
11329.93,11.66985
11335.71,11.61737
11341.5,11.6065
11347.28,11.67735
11353.07,11.62004
11358.86,11.55783
11364.64,11.60978
11370.43,11.59725
11376.21,11.60094
11382.0,11.68051
11387.78,11.70646
11393.57,11.71424
11399.35,11.65959
11405.14,11.66864
11410.92,11.68076
11416.71,11.60237
11422.5,11.66499
11428.28,11.72359
11434.07,11.82098
11439.85,11.81091
11445.64,11.73003
11451.42,11.80908
11457.21,11.82322
11462.99,11.79748
11468.78,11.79055
11474.57,11.79374
11480.35,11.81033
11486.14,11.75286
11491.92,11.78817
11497.71,11.80965
11503.49,11.72372
11509.28,11.8357
11515.06,11.83461
11520.85,11.77561
11526.63,11.92179
11532.42,11.87832
11538.21,11.82694
11543.99,11.90176
11549.78,11.82819
11555.56,11.85311
11561.35,11.90919
11567.13,11.84827
11572.92,11.8863
11578.7,11.85573
11584.49,11.83018
11590.28,11.91297
11596.06,11.88842
11601.85,11.87681
11607.63,12.00161
11613.42,11.97402
11619.2,11.92176
11624.99,11.97783
11630.77,11.98896
11636.56,11.99188
11642.34,11.98897
11648.13,11.95867
11653.92,12.00221
11659.7,11.8915
11665.49,11.87391
11671.27,11.98442
11677.06,11.91759
11682.84,11.9197
11688.63,11.89788
11694.41,11.8402
11700.2,11.9538
11705.99,11.90705
11711.77,11.87463
11717.56,11.93244
11723.34,11.8526
11729.13,11.87564
11734.91,11.99714
11740.7,11.98149
11746.48,11.77868
11752.27,11.98871
11758.05,11.99462
11763.84,11.92683
11769.63,12.07071
11775.41,12.01255
11781.2,12.00137
11786.98,11.95625
11792.77,11.91546
11798.55,11.96536
11804.34,11.82812
11810.12,11.91857
11815.91,12.04966
11821.7,12.02204
11827.48,12.00702
11833.27,11.86437
11839.05,12.02222
11844.84,11.85741
11850.62,12.08356
11856.41,11.9044
11862.19,11.91734
11867.98,11.98224
11873.76,12.03144
11879.55,11.9815
11885.34,11.9774
11891.12,12.0174
11896.91,12.07528
11902.69,12.12508
11908.48,11.867
11914.26,12.01167
11920.05,12.1632
11925.83,12.00413
11931.62,12.09232
11937.41,12.04419
11943.19,12.08996
11948.98,12.02993
11954.76,12.09924
11960.55,12.02246
11966.33,12.05185
11972.12,12.0419
11977.9,12.06251
11983.69,11.94493
11989.47,11.95881
11995.26,12.05333
11999.12,12.05703