File: Data/NIR/H0003LDPE_1.csv
Wavenumber,Intensity
3999.706,3.21427
4005.491,3.217484
4011.277,3.217765
4017.062,3.228961
4022.848,3.226718
4028.633,3.237469
4034.419,3.238807
4040.204,3.239271
4045.99,3.247909
4051.775,3.249099
4057.561,3.247394
4063.346,3.254534
4069.132,3.255867
4074.917,3.260548
4080.703,3.261715
4086.488,3.267605
4092.274,3.266586
4098.059,3.268111
4103.845,3.273638
4109.63,3.270044
4115.416,3.278527
4121.201,3.281145
4126.987,3.279804
4132.772,3.279734
4138.558,3.283751
4144.343,3.282829
4150.129,3.284976
4155.914,3.288346
4161.7,3.29319
4167.485,3.293224
4173.271,3.299766
4179.056,3.304776
4184.842,3.311868
4190.627,3.311963
4196.413,3.322659
4202.198,3.332186
4207.983,3.339062
4213.769,3.346431
4219.555,3.354131
4225.34,3.360115
4231.125,3.366598
4236.911,3.369372
4242.697,3.372525
4248.482,3.374488
4254.268,3.38002
4260.053,3.38479
4265.838,3.392589
4271.624,3.396297
4277.41,3.394651
4283.195,3.397607
4288.98,3.404775
4294.766,3.408827
4300.552,3.408407
4306.337,3.405199
4312.123,3.408087
4317.908,3.408142
4323.693,3.404754
4329.479,3.403254
4335.265,3.409654
4341.05,3.411335
4346.835,3.415233
4352.621,3.414387
4358.407,3.417337
4364.192,3.420088
4369.978,3.415657
4375.763,3.416901
4381.548,3.420631
4387.334,3.421321
4393.12,3.423749
4398.905,3.419995
4404.69,3.427412
4410.476,3.428857
4416.262,3.435699
4422.047,3.443091
4427.833,3.464906
4433.618,3.475084
4439.403,3.498357
4445.189,3.51912
4450.975,3.547656
4456.76,3.57778
4462.545,3.607307
4468.331,3.636648
4474.116,3.667048
4479.902,3.702223
4485.688,3.731015
4491.473,3.761076
4497.258,3.800269
4503.044,3.835709
4508.83,3.869541
4514.615,3.91371
4520.4,3.952158
4526.186,3.994195
4531.971,4.034754
4537.757,4.081824
4543.542,4.130809
4549.328,4.177414
4555.113,4.227513
4560.899,4.275702
4566.685,4.321075
4572.47,4.359732
4578.255,4.401093
4584.041,4.431916
4589.826,4.460215
4595.612,4.484398
4601.397,4.510376
4607.183,4.532309
4612.968,4.547599
4618.754,4.571515
4624.539,4.597365
4630.325,4.613971
4636.11,4.623625
4641.896,4.633657
4647.681,4.632591
4653.467,4.622985
4659.252,4.596401
4665.038,4.563537
4670.823,4.579526
4676.609,4.63295
4682.394,4.672702
4688.18,4.698333
4693.965,4.712861
4699.751,4.715199
4705.536,4.718277
4711.322,4.712746
4717.107,4.698215
4722.893,4.673901
4728.678,4.651759
4734.464,4.639056
4740.249,4.632856
4746.035,4.616491
4751.82,4.606725
4757.605,4.59001
4763.391,4.568844
4769.177,4.541034
4774.962,4.508682
4780.748,4.490283
4786.533,4.479693
4792.319,4.467834
4798.104,4.460424
4803.89,4.438799
4809.675,4.415379
4815.46,4.386013
4821.246,4.354512
4827.032,4.332649
4832.817,4.309086
4838.603,4.285724
4844.388,4.246002
4850.174,4.211818
4855.959,4.180498
4861.745,4.151433
4867.53,4.136915
4873.315,4.139227
4879.101,4.145081
4884.887,4.15243
4890.672,4.16631
4896.458,4.174906
4902.243,4.184177
4908.028,4.18635
4913.814,4.189048
4919.6,4.1866
4925.385,4.184611
4931.17,4.183626
4936.956,4.184709
4942.742,4.170177
4948.527,4.146707
4954.313,4.106051
4960.098,4.040163
4965.883,4.018612
4971.669,4.038013
4977.455,4.04963
4983.24,4.068856
4989.025,4.091776
4994.811,4.120642
5000.597,4.156154
5006.382,4.180072
5012.167,4.185907
5017.953,4.191376
5023.738,4.202403
5029.524,4.216512
5035.31,4.225546
5041.095,4.227013
5046.88,4.230907
5052.666,4.221293
5058.451,4.209623
5064.237,4.198785
5070.022,4.202217
5075.808,4.200915
5081.593,4.19873
5087.379,4.18854
5093.165,4.186088
5098.95,4.180499
5104.735,4.189081
5110.521,4.195859
5116.307,4.198849
5122.092,4.207625
5127.877,4.220519
5133.663,4.223271
5139.448,4.216728
5145.234,4.206378
5151.02,4.193103
5156.805,4.188901
5162.59,4.182488
5168.376,4.187341
5174.161,4.181142
5179.947,4.177595
5185.732,4.177772
5191.518,4.17185
5197.303,4.182084
5203.089,4.181952
5208.874,4.185863
5214.66,4.176736
5220.445,4.178566
5226.231,4.191081
5232.016,4.193925
5237.802,4.194991
5243.587,4.205849
5249.373,4.210642
5255.158,4.20769
5260.944,4.209374
5266.729,4.211895
5272.515,4.20311
5278.3,4.204066
5284.086,4.210101
5289.871,4.213606
5295.657,4.204413
5301.442,4.191853
5307.228,4.187484
5313.013,4.187386
5318.799,4.20998
5324.584,4.232679
5330.37,4.239046
5336.155,4.226362
5341.94,4.200655
5347.726,4.175069
5353.512,4.149292
5359.297,4.113567
5365.083,4.088636
5370.868,4.065066
5376.654,4.048821
5382.439,4.031303
5388.225,4.017321
5394.01,3.998021
5399.796,3.969155
5405.581,3.944379
5411.367,3.917268
5417.152,3.88181
5422.938,3.864913
5428.723,3.855897
5434.509,3.844995
5440.294,3.834614
5446.08,3.833518
5451.865,3.824224
5457.65,3.81894
5463.436,3.815389
5469.222,3.805384
5475.007,3.796016
5480.792,3.778634
5486.578,3.767324
5492.363,3.76777
5498.149,3.764856
5503.935,3.768666
5509.72,3.768861
5515.505,3.776505
5521.291,3.779358
5527.077,3.776178
5532.862,3.774921
5538.647,3.775349
5544.433,3.768492
5550.219,3.767441
5556.004,3.768096
5561.79,3.775207
5567.575,3.785125
5573.36,3.800266
5579.146,3.818343
5584.932,3.830818
5590.717,3.834471
5596.502,3.827636
5602.288,3.816746
5608.073,3.797943
5613.859,3.779802
5619.645,3.762423
5625.43,3.745592
5631.215,3.733263
5637.001,3.720441
5642.786,3.699989
5648.572,3.676109
5654.357,3.652388
5660.143,3.647628
5665.929,3.647937
5671.714,3.653651
5677.5,3.660228
5683.285,3.665833
5689.07,3.676433
5694.856,3.691931
5700.642,3.708781
5706.427,3.725855
5712.212,3.741116
5717.998,3.74344
5723.783,3.726978
5729.569,3.694386
5735.354,3.685951
5741.14,3.679247
5746.925,3.664664
5752.711,3.654183
5758.496,3.649197
5764.282,3.648224
5770.067,3.64222
5775.853,3.642579
5781.638,3.642563
5787.424,3.649415
5793.209,3.644817
5798.995,3.649279
5804.78,3.650235
5810.566,3.653949
5816.352,3.661505
5822.137,3.667902
5827.922,3.673214
5833.708,3.682194
5839.493,3.695622
5845.279,3.714199
5851.064,3.745459
5856.85,3.786869
5862.635,3.852679
5868.421,3.94278
5874.206,4.060656
5879.992,4.203884
5885.777,4.356564
5891.563,4.49438
5897.348,4.59539
5903.134,4.677554
5908.919,4.792157
5914.705,4.957136
5920.49,5.170646
5926.276,5.416677
5932.061,5.662755
5937.847,5.884846
5943.632,6.082189
5949.418,6.257253
5955.203,6.423698
5960.989,6.600347
5966.774,6.779803
5972.56,6.946881
5978.345,7.108242
5984.131,7.253251
5989.916,7.389599
5995.702,7.522495
6001.487,7.640917
6007.272,7.759591
6013.058,7.874719
6018.844,7.984759
6024.629,8.088658
6030.415,8.178077
6036.2,8.263433
6041.985,8.339492
6047.771,8.411971
6053.557,8.484781
6059.342,8.547897
6065.128,8.606477
6070.913,8.661276
6076.698,8.703853
6082.484,8.751462
6088.27,8.786484
6094.055,8.818249
6099.841,8.843675
6105.626,8.874322
6111.412,8.903615
6117.197,8.933508
6122.982,8.971972
6128.768,9.024976
6134.554,9.067452
6140.339,9.119746
6146.125,9.170515
6151.91,9.215121
6157.695,9.263134
6163.481,9.308537
6169.267,9.356149
6175.052,9.40543
6180.837,9.440761
6186.623,9.47774
6192.408,9.503716
6198.194,9.535395
6203.979,9.561455
6209.765,9.588195
6215.551,9.606836
6221.336,9.626042
6227.121,9.64656
6232.907,9.664904
6238.692,9.68111
6244.478,9.687467
6250.264,9.696068
6256.049,9.706543
6261.834,9.713781
6267.62,9.718388
6273.405,9.730671
6279.191,9.73986
6284.977,9.741194
6290.762,9.745233
6296.547,9.746812
6302.333,9.759919
6308.118,9.76298
6313.904,9.760344
6319.689,9.757037
6325.475,9.746321
6331.26,9.734172
6337.046,9.720956
6342.831,9.706802
6348.617,9.686077
6354.402,9.65499
6360.188,9.631507
6365.974,9.599521
6371.759,9.551262
6377.544,9.511486
6383.33,9.494369
6389.115,9.471756
6394.901,9.459268
6400.687,9.426711
6406.472,9.374168
6412.257,9.313872
6418.043,9.261857
6423.828,9.232419
6429.614,9.202804
6435.399,9.173099
6441.185,9.119521
6446.97,9.046466
6452.756,8.963279
6458.541,8.862133
6464.327,8.710348
6470.112,8.486435
6475.897,8.238927
6481.684,8.089074
6487.469,8.094672
6493.254,8.160153
6499.04,8.235661
6504.825,8.302162
6510.61,8.3667
6516.396,8.405697
6522.182,8.447713
6527.967,8.480755
6533.753,8.504903
6539.538,8.525822
6545.324,8.542156
6551.109,8.563013
6556.895,8.576069
6562.68,8.590993
6568.466,8.618303
6574.251,8.647958
6580.037,8.670993
6585.822,8.673798
6591.607,8.683072
6597.393,8.68506
6603.179,8.686362
6608.964,8.680761
6614.75,8.674457
6620.535,8.664266
6626.32,8.651303
6632.106,8.634849
6637.892,8.619174
6643.677,8.593051
6649.463,8.572705
6655.248,8.539815
6661.034,8.515952
6666.819,8.469982
6672.604,8.454049
6678.39,8.412335
6684.176,8.375884
6689.961,8.32891
6695.747,8.284081
6701.532,8.239247
6707.317,8.189807
6713.103,8.138005
6718.889,8.081198
6724.674,8.034698
6730.459,7.982029
6736.245,7.93788
6742.03,7.88948
6747.816,7.833758
6753.602,7.790059
6759.387,7.733798
6765.173,7.68699
6770.958,7.623837
6776.743,7.558612
6782.529,7.475396
6788.314,7.395557
6794.1,7.304107
6799.886,7.213783
6805.671,7.120846
6811.457,7.034899
6817.242,6.939709
6823.027,6.851207
6828.813,6.754889
6834.599,6.671926
6840.384,6.613929
6846.169,6.569247
6851.955,6.530295
6857.74,6.475989
6863.526,6.433751
6869.312,6.37288
6875.097,6.323167
6880.882,6.25949
6886.668,6.18694
6892.453,6.116233
6898.239,6.055556
6904.024,6.002193
6909.81,5.959985
6915.596,5.906083
6921.381,5.848801
6927.166,5.778907
6932.952,5.70072
6938.737,5.606904
6944.523,5.522906
6950.309,5.473531
6956.094,5.450805
6961.879,5.442904
6967.665,5.435915
6973.45,5.4383
6979.236,5.43304
6985.021,5.410163
6990.807,5.39996
6996.592,5.368382
7002.378,5.342939
7008.163,5.295954
7013.949,5.249927
7019.734,5.223665
7025.52,5.200409
7031.305,5.208578
7037.091,5.210853
7042.876,5.207056
7048.662,5.148681
7054.447,5.064771
7060.232,4.976871
7066.019,4.974257
7071.804,5.053132
7077.589,5.171561
7083.375,5.28082
7089.16,5.350961
7094.946,5.425148
7100.731,5.488282
7106.517,5.585396
7112.302,5.678195
7118.088,5.770667
7123.873,5.836196
7129.659,5.858524
7135.444,5.842607
7141.229,5.775656
7147.015,5.678969
7152.801,5.51052
7158.586,5.257163
7164.372,4.925257
7170.157,4.692567
7175.942,4.686438
7181.729,4.850525
7187.514,5.049226
7193.299,5.259133
7199.085,5.471045
7204.87,5.695989
7210.655,5.897572
7216.441,6.093482
7222.227,6.287135
7228.012,6.489305
7233.798,6.68987
7239.583,6.861338
7245.369,7.037577
7251.154,7.216092
7256.939,7.387998
7262.725,7.570063
7268.511,7.744844
7274.296,7.92489
7280.082,8.10109
7285.867,8.279462
7291.652,8.44471
7297.438,8.609172
7303.224,8.766725
7309.009,8.945504
7314.794,9.099946
7320.58,9.242767
7326.365,9.376204
7332.151,9.449509
7337.937,9.545111
7343.722,9.606733
7349.508,9.656813
7355.293,9.75925
7361.079,9.839565
7366.864,9.949457
7372.649,10.03829
7378.435,10.13365
7384.221,10.21333
7390.006,10.27402
7395.792,10.32812
7401.577,10.37473
7407.362,10.41299
7413.148,10.44667
7418.934,10.47122
7424.719,10.4972
7430.504,10.51902
7436.29,10.52873
7442.075,10.53995
7447.861,10.55626
7453.646,10.56606
7459.432,10.58266
7465.218,10.58879
7471.003,10.59598
7476.788,10.59949
7482.574,10.60505
7488.359,10.6027
7494.145,10.59965
7499.931,10.59629
7505.716,10.59362
7511.501,10.57975
7517.287,10.58295
7523.072,10.57732
7528.858,10.57071
7534.644,10.56162
7540.429,10.55116
7546.214,10.5361
7552.0,10.52864
7557.785,10.51618
7563.571,10.50829
7569.356,10.48548
7575.142,10.48215
7580.927,10.46407
7586.713,10.44982
7592.498,10.42602
7598.284,10.40663
7604.069,10.38708
7609.854,10.36951
7615.641,10.34439
7621.426,10.31798
7627.211,10.29464
7632.997,10.26594
7638.782,10.23106
7644.568,10.21176
7650.354,10.18419
7656.139,10.16147
7661.924,10.13853
7667.71,10.11976
7673.495,10.09865
7679.281,10.07501
7685.066,10.05444
7690.852,10.04574
7696.637,10.03045
7702.423,10.00879
7708.208,9.991708
7713.994,9.969987
7719.779,9.952065
7725.564,9.941583
7731.35,9.90972
7737.136,9.893903
7742.921,9.878995
7748.707,9.85632
7754.492,9.831381
7760.277,9.813346
7766.063,9.780893
7771.849,9.770379
7777.634,9.745254
7783.42,9.737167
7789.205,9.707901
7794.991,9.697884
7800.776,9.679905
7806.562,9.647833
7812.347,9.627571
7818.133,9.604119
7823.918,9.581595
7829.704,9.548643
7835.489,9.530558
7841.274,9.502951
7847.06,9.465959
7852.846,9.439504
7858.631,9.394365
7864.417,9.351537
7870.202,9.323057
7875.987,9.277305
7881.773,9.237508
7887.559,9.202928
7893.344,9.150018
7899.13,9.137915
7904.915,9.060964
7910.7,9.007724
7916.486,8.9514
7922.271,8.90783
7928.057,8.84922
7933.843,8.795985
7939.628,8.731593
7945.414,8.669054
7951.199,8.603769
7956.984,8.534002
7962.77,8.464973
7968.556,8.396625
7974.341,8.326821
7980.126,8.249105
7985.912,8.17872
7991.697,8.102905
7997.483,8.019608
8003.269,7.930336
8009.054,7.859507
8014.839,7.775869
8020.625,7.671288
8026.41,7.589545
8032.196,7.48906
8037.981,7.407354
8043.767,7.306182
8049.553,7.184038
8055.338,7.087085
8061.124,6.990928
8066.909,6.874041
8072.694,6.775511
8078.48,6.658285
8084.266,6.557041
8090.051,6.432482
8095.836,6.312683
8101.622,6.201745
8107.407,6.081829
8113.192,5.957235
8118.979,5.826106
8124.764,5.708032
8130.55,5.571417
8136.335,5.451123
8142.12,5.312586
8147.906,5.189698
8153.691,5.07313
8159.477,4.95782
8165.263,4.832381
8171.048,4.721578
8176.833,4.615919
8182.619,4.520462
8188.404,4.444955
8194.189,4.379992
8199.976,4.312991
8205.761,4.273996
8211.546,4.245468
8217.332,4.223107
8223.117,4.215027
8228.902,4.216888
8234.688,4.211359
8240.474,4.228358
8246.259,4.221812
8252.045,4.239495
8257.83,4.265851
8263.616,4.278519
8269.401,4.314031
8275.187,4.352137
8280.973,4.400004
8286.758,4.448883
8292.543,4.521455
8298.329,4.578189
8304.114,4.638188
8309.899,4.708528
8315.686,4.794045
8321.471,4.855984
8327.256,4.924808
8333.042,5.006833
8338.827,5.081204
8344.612,5.170074
8350.398,5.263762
8356.184,5.335407
8361.969,5.430623
8367.755,5.522962
8373.54,5.596292
8379.325,5.678235
8385.111,5.762114
8390.896,5.817726
8396.683,5.876091
8402.468,5.913888
8408.253,5.937136
8414.039,5.954483
8419.824,5.997293
8425.609,6.024144
8431.396,6.101324
8437.181,6.185955
8442.966,6.309658
8448.752,6.432611
8454.537,6.562547
8460.322,6.680094
8466.108,6.769191
8471.894,6.864955
8477.679,6.971158
8483.465,7.074328
8489.25,7.186105
8495.035,7.267115
8500.821,7.341532
8506.606,7.400457
8512.392,7.448093
8518.178,7.496504
8523.963,7.554886
8529.748,7.5972
8535.534,7.607972
8541.319,7.600023
8547.105,7.542689
8552.891,7.457028
8558.676,7.372845
8564.462,7.335645
8570.247,7.411857
8576.032,7.523311
8581.818,7.659795
8587.604,7.808705
8593.389,7.99362
8599.175,8.150591
8604.96,8.329728
8610.745,8.51254
8616.531,8.670833
8622.316,8.842589
8628.102,8.985396
8633.888,9.104695
8639.673,9.22176
8645.458,9.32586
8651.244,9.422415
8657.029,9.513142
8662.814,9.580636
8668.601,9.656585
8674.386,9.720902
8680.172,9.794564
8685.957,9.8547
8691.742,9.942609
8697.528,10.02132
8703.313,10.10457
8709.099,10.2153
8714.885,10.31482
8720.67,10.39965
8726.455,10.49485
8732.241,10.60444
8738.026,10.67972
8743.812,10.77141
8749.598,10.85066
8755.383,10.9322
8761.168,10.98315
8766.954,11.04442
8772.739,11.10907
8778.524,11.16351
8784.311,11.20955
8790.096,11.26442
8795.881,11.28255
8801.667,11.31355
8807.452,11.36791
8813.237,11.39822
8819.023,11.42588
8824.809,11.4411
8830.595,11.45942
8836.38,11.46884
8842.165,11.49054
8847.951,11.50139
8853.736,11.50877
8859.521,11.5113
8865.308,11.53269
8871.093,11.53326
8876.878,11.53876
8882.664,11.54263
8888.449,11.5472
8894.234,11.54489
8900.021,11.55432
8905.806,11.54
8911.591,11.54894
8917.377,11.54868
8923.162,11.54119
8928.947,11.54449
8934.733,11.5224
8940.519,11.52193
8946.304,11.52226
8952.09,11.53329
8957.875,11.51674
8963.661,11.52614
8969.446,11.52686
8975.231,11.51617
8981.018,11.53811
8986.803,11.53732
8992.588,11.53686
8998.374,11.52785
9004.159,11.55346
9009.944,11.53927
9015.73,11.5535
9021.516,11.55347
9027.301,11.5627
9033.087,11.57387
9038.872,11.56645
9044.657,11.58198
9050.443,11.57481
9056.229,11.57378
9062.014,11.59131
9067.8,11.57637
9073.585,11.58215
9079.37,11.58354
9085.156,11.58274
9090.941,11.57973
9096.727,11.58185
9102.513,11.59371
9108.298,11.57934
9114.084,11.55917
9119.869,11.57121
9125.654,11.56932
9131.44,11.57015
9137.226,11.5597
9143.011,11.53798
9148.797,11.54724
9154.582,11.55372
9160.367,11.54084
9166.153,11.52072
9171.938,11.50614
9177.724,11.51755
9183.51,11.49556
9189.295,11.48152
9195.08,11.47224
9200.866,11.46845
9206.651,11.4717
9212.437,11.46418
9218.223,11.44124
9224.008,11.43582
9229.793,11.43297
9235.579,11.41959
9241.364,11.42124
9247.15,11.41508
9252.936,11.42014
9258.721,11.3853
9264.507,11.38269
9270.292,11.38123
9276.077,11.36816
9281.863,11.37153
9287.648,11.34337
9293.434,11.34247
9299.22,11.33812
9305.005,11.33108
9310.79,11.33474
9316.576,11.33645
9322.361,11.33163
9328.146,11.34314
9333.933,11.32059
9339.718,11.31853
9345.503,11.34328
9351.289,11.30721
9357.074,11.288
9362.859,11.28045
9368.646,11.2784
9374.431,11.2477
9380.217,11.25509
9386.002,11.24311
9391.787,11.21851
9397.573,11.19668
9403.358,11.20303
9409.144,11.17585
9414.93,11.16165
9420.715,11.14213
9426.5,11.13471
9432.286,11.09507
9438.071,11.09216
9443.856,11.06681
9449.643,11.03587
9455.428,11.035
9461.213,11.01983
9466.999,10.9812
9472.784,10.95991
9478.569,10.95248
9484.355,10.95144
9490.141,10.94182
9495.926,10.9117
9501.712,10.93048
9507.497,10.9211
9513.282,10.8969
9519.068,10.87566
9524.854,10.87621
9530.64,10.84365
9536.425,10.84896
9542.21,10.81422
9547.996,10.80435
9553.781,10.80256
9559.566,10.76157
9565.353,10.77843
9571.138,10.75389
9576.923,10.74399
9582.709,10.72295
9588.494,10.71339
9594.279,10.71139
9600.065,10.75605
9605.851,10.71702
9611.636,10.72702
9617.422,10.75406
9623.207,10.7635
9628.992,10.76691
9634.778,10.78761
9640.563,10.80373
9646.349,10.85389
9652.135,10.86722
9657.92,10.89347
9663.706,10.91728
9669.491,10.94175
9675.276,10.97058
9681.063,10.95286
9686.848,11.00443
9692.633,11.00509
9698.419,11.04991
9704.204,11.05748
9709.989,11.08082
9715.775,11.14242
9721.561,11.13817
9727.346,11.16938
9733.132,11.16679
9738.917,11.22144
9744.702,11.22682
9750.488,11.26856
9756.273,11.28308
9762.059,11.28218
9767.845,11.26218
9773.63,11.26223
9779.415,11.28809
9785.201,11.3068
9790.986,11.3105
9796.771,11.32219
9802.558,11.30752
9808.343,11.30181
9814.129,11.30061
9819.914,11.27931
9825.699,11.29991
9831.485,11.31686
9837.271,11.3415
9843.056,11.34971
9848.842,11.34579
9854.627,11.37432
9860.412,11.41085
9866.198,11.45985
9871.983,11.46656
9877.769,11.53627
9883.555,11.55182
9889.34,11.5622
9895.125,11.61129
9900.911,11.61131
9906.696,11.6409
9912.481,11.63925
9918.268,11.65806
9924.053,11.68392
9929.838,11.6867
9935.624,11.71925
9941.409,11.74283
9947.195,11.7817
9952.98,11.77818
9958.766,11.82908
9964.552,11.80853
9970.337,11.83952
9976.122,11.84828
9981.908,11.85037
9987.693,11.84915
9993.479,11.88505
9999.265,11.89883
10005.05,11.8934
10010.83,11.91359
10016.62,11.92773
10022.41,11.89422
10028.19,11.93349
10033.98,11.95917
10039.76,11.96067
10045.55,11.97958
10051.33,11.99889
10057.12,12.00109
10062.9,12.01012
10068.69,11.99795
10074.48,12.04822
10080.26,12.03841
10086.05,12.03477
10091.83,12.05495
10097.62,12.04972
10103.4,12.07117
10109.19,12.05814
10114.97,12.01509
10120.76,12.05507
10126.54,12.10957
10132.33,12.06562
10138.12,12.09536
10143.9,12.08712
10149.69,12.06711
10155.47,12.07182
10161.26,12.08604
10167.04,12.10147
10172.83,12.06537
10178.61,12.0371
10184.4,12.10091
10190.19,12.097
10195.97,12.10195
10201.76,12.1007
10207.54,12.08078
10213.33,12.09825
10219.11,12.07645
10224.9,12.07572
10230.68,12.06043
10236.47,12.07541
10242.25,12.05805
10248.04,12.03511
10253.83,12.05356
10259.61,12.0641
10265.4,12.06881
10271.18,12.07183
10276.97,12.06427
10282.75,12.03453
10288.54,12.04797
10294.32,12.04168
10300.11,12.0723
10305.9,12.05159
10311.68,12.02002
10317.47,11.99436
10323.25,12.03315
10329.04,12.01094
10334.82,12.00477
10340.61,12.00519
10346.39,11.99245
10352.18,12.0075
10357.96,12.00704
10363.75,11.98059
10369.54,11.96714
10375.32,11.9568
10381.11,11.96387
10386.89,11.9679
10392.68,11.93009
10398.46,11.91575
10404.25,11.93569
10410.03,11.93989
10415.82,11.91739
10421.61,11.93197
10427.39,11.89897
10433.18,11.88295
10438.96,11.851
10444.75,11.86623
10450.53,11.81628
10456.32,11.8384
10462.1,11.81598
10467.89,11.78746
10473.67,11.78897
10479.46,11.7651
10485.25,11.73849
10491.03,11.75173
10496.82,11.6624
10502.6,11.64914
10508.39,11.66712
10514.17,11.64657
10519.96,11.5977
10525.74,11.57116
10531.53,11.53818
10537.32,11.52221
10543.1,11.5044
10548.89,11.43963
10554.67,11.38586
10560.46,11.29636
10566.24,11.32452
10572.03,11.22785
10577.81,11.13852
10583.6,11.10995
10589.38,11.10076
10595.17,11.04704
10600.96,10.91925
10606.74,10.86294
10612.53,10.79457
10618.31,10.7108
10624.1,10.60346
10629.88,10.53079
10635.67,10.41039
10641.45,10.38572
10647.24,10.24443
10653.03,10.17432
10658.81,10.07854
10664.6,10.0358
10670.38,9.948807
10676.17,9.884979
10681.95,9.798048
10687.74,9.722823
10693.52,9.673244
10699.31,9.615707
10705.09,9.634643
10710.88,9.571446
10716.67,9.525682
10722.45,9.47664
10728.24,9.541239
10734.02,9.557547
10739.81,9.513568
10745.59,9.560394
10751.38,9.603507
10757.16,9.591955
10762.95,9.662973
10768.74,9.713451
10774.52,9.715756
10780.31,9.827966
10786.09,9.853096
10791.88,9.861684
10797.66,9.916369
10803.45,9.947451
10809.23,10.04627
10815.02,10.11347
10820.8,10.1378
10826.59,10.17303
10832.38,10.29817
10838.16,10.39849
10843.95,10.37497
10849.73,10.46372
10855.52,10.47044
10861.3,10.57874
10867.09,10.68598
10872.87,10.71052
10878.66,10.77412
10884.45,10.78618
10890.23,10.81896
10896.02,10.8382
10901.8,10.91282
10907.59,10.98713
10913.37,11.01931
10919.16,11.08926
10924.94,11.12352
10930.73,11.12547
10936.51,11.18616
10942.3,11.19585
10948.09,11.24222
10953.87,11.29885
10959.66,11.40713
10965.44,11.47563
10971.23,11.47784
10977.01,11.43924
10982.8,11.49962
10988.58,11.53026
10994.37,11.58582
11000.16,11.58544
11005.94,11.66077
11011.73,11.72372
11017.51,11.71895
11023.3,11.7219
11029.08,11.77549
11034.87,11.73662
11040.65,11.81852
11046.44,11.81792
11052.22,11.83878
11058.01,11.81649
11063.79,11.85503
11069.58,11.88796
11075.37,11.93126
11081.15,11.94879
11086.94,11.86717
11092.72,11.85246
11098.51,11.97414
11104.29,12.0051
11110.08,11.98563
11115.87,11.97889
11121.65,11.96495
11127.44,11.9596
11133.22,11.95122
11139.01,11.91467
11144.79,12.01661
11150.58,12.00271
11156.36,12.01462
11162.15,12.0882
11167.93,12.059
11173.72,12.0447
11179.5,12.11973
11185.29,12.09638
11191.08,12.16352
11196.86,12.20321
11202.65,12.14596
11208.43,12.19157
11214.22,12.21141
11220.0,12.24749
11225.79,12.2214
11231.58,12.28523
11237.36,12.30661
11243.15,12.27371
11248.93,12.3267
11254.72,12.35054
11260.5,12.3937
11266.29,12.31789
11272.07,12.34746
11277.86,12.35506
11283.64,12.42508
11289.43,12.43537
11295.21,12.32175
11301.0,12.38648
11306.79,12.45549
11312.57,12.46755
11318.36,12.32611
11324.14,12.53115
11329.93,12.44002
11335.71,12.53767
11341.5,12.45149
11347.28,12.60562
11353.07,12.54113
11358.86,12.4481
11364.64,12.44151
11370.43,12.46192
11376.21,12.45506
11382.0,12.57012
11387.78,12.52966
11393.57,12.56961
11399.35,12.56244
11405.14,12.48665
11410.92,12.59171
11416.71,12.59664
11422.5,12.55413
11428.28,12.59994
11434.07,12.6021
11439.85,12.66899
11445.64,12.52911
11451.42,12.66157
11457.21,12.61172
11462.99,12.60414
11468.78,12.62592
11474.57,12.54489
11480.35,12.68594
11486.14,12.56125
11491.92,12.64732
11497.71,12.63103
11503.49,12.69152
11509.28,12.72283
11515.06,12.64374
11520.85,12.66724
11526.63,12.65709
11532.42,12.75601
11538.21,12.64406
11543.99,12.6363
11549.78,12.72859
11555.56,12.69069
11561.35,12.71639
11567.13,12.68368
11572.92,12.66615
11578.7,12.76443
11584.49,12.73138
11590.28,12.81179
11596.06,12.71958
11601.85,12.69906
11607.63,12.79648
11613.42,12.84833
11619.2,12.85793
11624.99,12.84918
11630.77,12.67242
11636.56,12.80118
11642.34,12.74505
11648.13,12.73076
11653.92,12.8093
11659.7,12.82577
11665.49,12.65222
11671.27,12.80277
11677.06,12.72323
11682.84,12.77103
11688.63,12.7465
11694.41,12.74576
11700.2,12.70725
11705.99,12.78771
11711.77,12.79867
11717.56,12.83866
11723.34,12.83744
11729.13,12.68887
11734.91,12.77111
11740.7,12.81317
11746.48,12.87535
11752.27,12.84277
11758.05,12.81642
11763.84,12.96415
11769.63,12.84064
11775.41,12.8988
11781.2,12.73284
11786.98,12.71211
11792.77,12.75436
11798.55,12.74952
11804.34,12.63449
11810.12,12.7972
11815.91,12.83192
11821.7,12.79506
11827.48,12.77492
11833.27,12.82596
11839.05,12.72585
11844.84,12.7063
11850.62,12.54511
11856.41,12.64557
11862.19,12.66086
11867.98,12.93689
11873.76,12.68968
11879.55,12.74576
11885.34,12.60058
11891.12,12.77192
11896.91,12.68666
11902.69,12.73005
11908.48,12.82959
11914.26,12.64983
11920.05,12.84701
11925.83,12.81003
11931.62,12.80527
11937.41,12.71953
11943.19,12.58771
11948.98,12.73869
11954.76,12.81639
11960.55,12.90002
11966.33,12.70951
11972.12,12.60052
11977.9,12.67414
11983.69,12.64695
11989.47,12.70326
11995.26,12.71227
11999.12,12.80127