File: Data/NIR/H0003LDPE_4.csv
Wavenumber,Intensity
3999.706,2.814378
4005.491,2.811674
4011.277,2.817738
4017.062,2.823588
4022.848,2.824519
4028.633,2.83287
4034.419,2.833005
4040.204,2.830042
4045.99,2.841539
4051.775,2.840649
4057.561,2.845402
4063.346,2.844756
4069.132,2.845434
4074.917,2.847245
4080.703,2.854473
4086.488,2.848046
4092.274,2.854601
4098.059,2.85484
4103.845,2.860515
4109.63,2.860605
4115.416,2.862895
4121.201,2.86379
4126.987,2.866314
4132.772,2.867761
4138.558,2.864214
4144.343,2.863267
4150.129,2.869631
4155.914,2.869906
4161.7,2.871262
4167.485,2.87748
4173.271,2.880845
4179.056,2.886178
4184.842,2.887678
4190.627,2.891693
4196.413,2.902232
4202.198,2.905411
4207.983,2.912139
4213.769,2.921311
4219.555,2.928208
4225.34,2.931479
4231.125,2.93189
4236.911,2.939933
4242.697,2.940193
4248.482,2.938396
4254.268,2.937617
4260.053,2.947157
4265.838,2.951947
4271.624,2.955031
4277.41,2.955103
4283.195,2.966694
4288.98,2.964801
4294.766,2.97044
4300.552,2.969128
4306.337,2.970945
4312.123,2.970313
4317.908,2.963835
4323.693,2.958743
4329.479,2.961407
4335.265,2.964898
4341.05,2.972792
4346.835,2.966583
4352.621,2.975692
4358.407,2.978582
4364.192,2.974606
4369.978,2.979079
4375.763,2.98235
4381.548,2.983527
4387.334,2.979173
4393.12,2.985132
4398.905,2.98341
4404.69,2.98839
4410.476,2.995186
4416.262,3.000059
4422.047,3.011541
4427.833,3.03205
4433.618,3.045557
4439.403,3.067713
4445.189,3.091392
4450.975,3.119739
4456.76,3.150318
4462.545,3.181682
4468.331,3.211547
4474.116,3.239013
4479.902,3.270968
4485.688,3.30124
4491.473,3.335952
4497.258,3.369711
4503.044,3.403252
4508.83,3.440428
4514.615,3.480207
4520.4,3.522428
4526.186,3.55519
4531.971,3.595735
4537.757,3.64171
4543.542,3.68445
4549.328,3.729759
4555.113,3.774355
4560.899,3.827051
4566.685,3.86524
4572.47,3.910017
4578.255,3.940022
4584.041,3.971244
4589.826,3.995666
4595.612,4.021486
4601.397,4.044032
4607.183,4.063772
4612.968,4.082539
4618.754,4.099816
4624.539,4.119466
4630.325,4.141643
4636.11,4.148475
4641.896,4.158695
4647.681,4.159548
4653.467,4.145168
4659.252,4.116428
4665.038,4.088646
4670.823,4.104201
4676.609,4.150173
4682.394,4.193798
4688.18,4.219502
4693.965,4.227561
4699.751,4.230322
4705.536,4.231101
4711.322,4.226549
4717.107,4.215969
4722.893,4.191146
4728.678,4.170094
4734.464,4.156495
4740.249,4.146699
4746.035,4.13457
4751.82,4.122918
4757.605,4.109514
4763.391,4.084213
4769.177,4.060338
4774.962,4.027002
4780.748,4.00861
4786.533,4.001276
4792.319,3.993724
4798.104,3.97693
4803.89,3.960091
4809.675,3.939525
4815.46,3.911321
4821.246,3.880566
4827.032,3.857438
4832.817,3.834761
4838.603,3.810379
4844.388,3.775329
4850.174,3.742688
4855.959,3.709694
4861.745,3.687985
4867.53,3.670035
4873.315,3.669015
4879.101,3.679093
4884.887,3.685889
4890.672,3.694668
4896.458,3.706
4902.243,3.712026
4908.028,3.7202
4913.814,3.723596
4919.6,3.719938
4925.385,3.719453
4931.17,3.715293
4936.956,3.717081
4942.742,3.707932
4948.527,3.682088
4954.313,3.636728
4960.098,3.579607
4965.883,3.553216
4971.669,3.572053
4977.455,3.585947
4983.24,3.602374
4989.025,3.625766
4994.811,3.655933
5000.597,3.690376
5006.382,3.709009
5012.167,3.722537
5017.953,3.719706
5023.738,3.729192
5029.524,3.748016
5035.31,3.7548
5041.095,3.760319
5046.88,3.757716
5052.666,3.754923
5058.451,3.736961
5064.237,3.729694
5070.022,3.731222
5075.808,3.728852
5081.593,3.727099
5087.379,3.720675
5093.165,3.71154
5098.95,3.709781
5104.735,3.714166
5110.521,3.723531
5116.307,3.726416
5122.092,3.738929
5127.877,3.741915
5133.663,3.7495
5139.448,3.742476
5145.234,3.733557
5151.02,3.721553
5156.805,3.717861
5162.59,3.71102
5168.376,3.710526
5174.161,3.710419
5179.947,3.705195
5185.732,3.706705
5191.518,3.702616
5197.303,3.708711
5203.089,3.706709
5208.874,3.719261
5214.66,3.7054
5220.445,3.70599
5226.231,3.722998
5232.016,3.720028
5237.802,3.724259
5243.587,3.734783
5249.373,3.740711
5255.158,3.747242
5260.944,3.739707
5266.729,3.737944
5272.515,3.72984
5278.3,3.730349
5284.086,3.733555
5289.871,3.738819
5295.657,3.726871
5301.442,3.721576
5307.228,3.71627
5313.013,3.717557
5318.799,3.74442
5324.584,3.758836
5330.37,3.765804
5336.155,3.751652
5341.94,3.728792
5347.726,3.70887
5353.512,3.678338
5359.297,3.641819
5365.083,3.619633
5370.868,3.589223
5376.654,3.586334
5382.439,3.563875
5388.225,3.551742
5394.01,3.536797
5399.796,3.498827
5405.581,3.477979
5411.367,3.459367
5417.152,3.412011
5422.938,3.392928
5428.723,3.389655
5434.509,3.37728
5440.294,3.373246
5446.08,3.370298
5451.865,3.351261
5457.65,3.350091
5463.436,3.342778
5469.222,3.336346
5475.007,3.329182
5480.792,3.311189
5486.578,3.29971
5492.363,3.302605
5498.149,3.296874
5503.935,3.297259
5509.72,3.301664
5515.505,3.305557
5521.291,3.308233
5527.077,3.303715
5532.862,3.303298
5538.647,3.297757
5544.433,3.299854
5550.219,3.295615
5556.004,3.298138
5561.79,3.30431
5567.575,3.314147
5573.36,3.334247
5579.146,3.348594
5584.932,3.360918
5590.717,3.36695
5596.502,3.359153
5602.288,3.345326
5608.073,3.3248
5613.859,3.304754
5619.645,3.292305
5625.43,3.273467
5631.215,3.257618
5637.001,3.245387
5642.786,3.224794
5648.572,3.202503
5654.357,3.176833
5660.143,3.164155
5665.929,3.164792
5671.714,3.170404
5677.5,3.17357
5683.285,3.186183
5689.07,3.197506
5694.856,3.213178
5700.642,3.230292
5706.427,3.248363
5712.212,3.266401
5717.998,3.269865
5723.783,3.253389
5729.569,3.21801
5735.354,3.201561
5741.14,3.191837
5746.925,3.182133
5752.711,3.168912
5758.496,3.165357
5764.282,3.160752
5770.067,3.154453
5775.853,3.157907
5781.638,3.161212
5787.424,3.163685
5793.209,3.163111
5798.995,3.166943
5804.78,3.1655
5810.566,3.172051
5816.352,3.177182
5822.137,3.178846
5827.922,3.190351
5833.708,3.202795
5839.493,3.216443
5845.279,3.237583
5851.064,3.267311
5856.85,3.313442
5862.635,3.386815
5868.421,3.472245
5874.206,3.590651
5879.992,3.735469
5885.777,3.879407
5891.563,4.016868
5897.348,4.112384
5903.134,4.197
5908.919,4.302
5914.705,4.468423
5920.49,4.676392
5926.276,4.916564
5932.061,5.158055
5937.847,5.372506
5943.632,5.564424
5949.418,5.738821
5955.203,5.896697
5960.989,6.068715
5966.774,6.241092
5972.56,6.401054
5978.345,6.553567
5984.131,6.69265
5989.916,6.831702
5995.702,6.953587
6001.487,7.069344
6007.272,7.181764
6013.058,7.29386
6018.844,7.392138
6024.629,7.488634
6030.415,7.577946
6036.2,7.66056
6041.985,7.72998
6047.771,7.802368
6053.557,7.868104
6059.342,7.927163
6065.128,7.978509
6070.913,8.02579
6076.698,8.077922
6082.484,8.117285
6088.27,8.150257
6094.055,8.181952
6099.841,8.206239
6105.626,8.239429
6111.412,8.263573
6117.197,8.294268
6122.982,8.331768
6128.768,8.371487
6134.554,8.420485
6140.339,8.470161
6146.125,8.512063
6151.91,8.558065
6157.695,8.603568
6163.481,8.648811
6169.267,8.688105
6175.052,8.737926
6180.837,8.767799
6186.623,8.804874
6192.408,8.828642
6198.194,8.857946
6203.979,8.881151
6209.765,8.90496
6215.551,8.924964
6221.336,8.94342
6227.121,8.961829
6232.907,8.979226
6238.692,8.984894
6244.478,9.001659
6250.264,9.013089
6256.049,9.010582
6261.834,9.022478
6267.62,9.034595
6273.405,9.037637
6279.191,9.045819
6284.977,9.05677
6290.762,9.058199
6296.547,9.062734
6302.333,9.068437
6308.118,9.06291
6313.904,9.07022
6319.689,9.066326
6325.475,9.059958
6331.26,9.046007
6337.046,9.035132
6342.831,9.017442
6348.617,8.998924
6354.402,8.982203
6360.188,8.953777
6365.974,8.924763
6371.759,8.876618
6377.544,8.835546
6383.33,8.817366
6389.115,8.807627
6394.901,8.790404
6400.687,8.766446
6406.472,8.716909
6412.257,8.657517
6418.043,8.612046
6423.828,8.571467
6429.614,8.551336
6435.399,8.526133
6441.185,8.477108
6446.97,8.406162
6452.756,8.323807
6458.541,8.235391
6464.327,8.091445
6470.112,7.881684
6475.897,7.649334
6481.684,7.502952
6487.469,7.505116
6493.254,7.572948
6499.04,7.646825
6504.825,7.711645
6510.61,7.767858
6516.396,7.815079
6522.182,7.848444
6527.967,7.880979
6533.753,7.911056
6539.538,7.922715
6545.324,7.941368
6551.109,7.954378
6556.895,7.975358
6562.68,7.989987
6568.466,8.01252
6574.251,8.039416
6580.037,8.050382
6585.822,8.065461
6591.607,8.0723
6597.393,8.079119
6603.179,8.072889
6608.964,8.075341
6614.75,8.071663
6620.535,8.057179
6626.32,8.040721
6632.106,8.03418
6637.892,8.010262
6643.677,7.994232
6649.463,7.973503
6655.248,7.946815
6661.034,7.91766
6666.819,7.886578
6672.604,7.852879
6678.39,7.82155
6684.176,7.782519
6689.961,7.740045
6695.747,7.70466
6701.532,7.658241
6707.317,7.610835
6713.103,7.561089
6718.889,7.512731
6724.674,7.462541
6730.459,7.416706
6736.245,7.37192
6742.03,7.318489
6747.816,7.275325
6753.602,7.227568
6759.387,7.183076
6765.173,7.125249
6770.958,7.070361
6776.743,7.007815
6782.529,6.930507
6788.314,6.853781
6794.1,6.767778
6799.886,6.676442
6805.671,6.588429
6811.457,6.499852
6817.242,6.418345
6823.027,6.327096
6828.813,6.22886
6834.599,6.160982
6840.384,6.103796
6846.169,6.065983
6851.955,6.019791
6857.74,5.967233
6863.526,5.922462
6869.312,5.867361
6875.097,5.812059
6880.882,5.752272
6886.668,5.686374
6892.453,5.615586
6898.239,5.555511
6904.024,5.509588
6909.81,5.466241
6915.596,5.408562
6921.381,5.352728
6927.166,5.285978
6932.952,5.204081
6938.737,5.121232
6944.523,5.032959
6950.309,4.986715
6956.094,4.967862
6961.879,4.957609
6967.665,4.951381
6973.45,4.948182
6979.236,4.938549
6985.021,4.928468
6990.807,4.904099
6996.592,4.878613
7002.378,4.850008
7008.163,4.80465
7013.949,4.772478
7019.734,4.738403
7025.52,4.72412
7031.305,4.727965
7037.091,4.72985
7042.876,4.720475
7048.662,4.677556
7054.447,4.590473
7060.232,4.499227
7066.019,4.487442
7071.804,4.582834
7077.589,4.702939
7083.375,4.804471
7089.16,4.879734
7094.946,4.946012
7100.731,5.019227
7106.517,5.112526
7112.302,5.189977
7118.088,5.306713
7123.873,5.350234
7129.659,5.382227
7135.444,5.35997
7141.229,5.29724
7147.015,5.185431
7152.801,5.025478
7158.586,4.767135
7164.372,4.447556
7170.157,4.216847
7175.942,4.217476
7181.729,4.383959
7187.514,4.575015
7193.299,4.784823
7199.085,4.988572
7204.87,5.230222
7210.655,5.410971
7216.441,5.598933
7222.227,5.790915
7228.012,5.999273
7233.798,6.209897
7239.583,6.343775
7245.369,6.531588
7251.154,6.690243
7256.939,6.859086
7262.725,7.042674
7268.511,7.208886
7274.296,7.38441
7280.082,7.543506
7285.867,7.709315
7291.652,7.863134
7297.438,8.022641
7303.224,8.182158
7309.009,8.350689
7314.794,8.489631
7320.58,8.617664
7326.365,8.744851
7332.151,8.820332
7337.937,8.893399
7343.722,8.980835
7349.508,9.0351
7355.293,9.12432
7361.079,9.197678
7366.864,9.278395
7372.649,9.355778
7378.435,9.452715
7384.221,9.530157
7390.006,9.594772
7395.792,9.646288
7401.577,9.686347
7407.362,9.722475
7413.148,9.743477
7418.934,9.781286
7424.719,9.785564
7430.504,9.80625
7436.29,9.823612
7442.075,9.832644
7447.861,9.841929
7453.646,9.854334
7459.432,9.866542
7465.218,9.880914
7471.003,9.889262
7476.788,9.893419
7482.574,9.887789
7488.359,9.885837
7494.145,9.893202
7499.931,9.885122
7505.716,9.880443
7511.501,9.882487
7517.287,9.877357
7523.072,9.872947
7528.858,9.867026
7534.644,9.858386
7540.429,9.847473
7546.214,9.830582
7552.0,9.825463
7557.785,9.815521
7563.571,9.801512
7569.356,9.790157
7575.142,9.777268
7580.927,9.756221
7586.713,9.752914
7592.498,9.737745
7598.284,9.721475
7604.069,9.688191
7609.854,9.679268
7615.641,9.662786
7621.426,9.627972
7627.211,9.608178
7632.997,9.580869
7638.782,9.552249
7644.568,9.534869
7650.354,9.508148
7656.139,9.48373
7661.924,9.47066
7667.71,9.448309
7673.495,9.419239
7679.281,9.416159
7685.066,9.399756
7690.852,9.373238
7696.637,9.36483
7702.423,9.353336
7708.208,9.335776
7713.994,9.313233
7719.779,9.289404
7725.564,9.279806
7731.35,9.25845
7737.136,9.252358
7742.921,9.230989
7748.707,9.213094
7754.492,9.189379
7760.277,9.160984
7766.063,9.142276
7771.849,9.118633
7777.634,9.100245
7783.42,9.088289
7789.205,9.080306
7794.991,9.066702
7800.776,9.04729
7806.562,9.019911
7812.347,8.998833
7818.133,8.985749
7823.918,8.956826
7829.704,8.930753
7835.489,8.913434
7841.274,8.877568
7847.06,8.855478
7852.846,8.821568
7858.631,8.784695
7864.417,8.757695
7870.202,8.723836
7875.987,8.684452
7881.773,8.635335
7887.559,8.60318
7893.344,8.556153
7899.13,8.512141
7904.915,8.463084
7910.7,8.421467
7916.486,8.38316
7922.271,8.322148
7928.057,8.273273
7933.843,8.221609
7939.628,8.158849
7945.414,8.102429
7951.199,8.04681
7956.984,7.977716
7962.77,7.91809
7968.556,7.851157
7974.341,7.782176
7980.126,7.703402
7985.912,7.641436
7991.697,7.564209
7997.483,7.484416
8003.269,7.413609
8009.054,7.331859
8014.839,7.241192
8020.625,7.171263
8026.41,7.070157
8032.196,6.974349
8037.981,6.870449
8043.767,6.795964
8049.553,6.689759
8055.338,6.585407
8061.124,6.485291
8066.909,6.37788
8072.694,6.274704
8078.48,6.189252
8084.266,6.055143
8090.051,5.960771
8095.836,5.839389
8101.622,5.71629
8107.407,5.607962
8113.192,5.466286
8118.979,5.351638
8124.764,5.229212
8130.55,5.091028
8136.335,4.964802
8142.12,4.859386
8147.906,4.725279
8153.691,4.603088
8159.477,4.478165
8165.263,4.367299
8171.048,4.255257
8176.833,4.152742
8182.619,4.048822
8188.404,3.975715
8194.189,3.89031
8199.976,3.846454
8205.761,3.8026
8211.546,3.779899
8217.332,3.76025
8223.117,3.754288
8228.902,3.742996
8234.688,3.737511
8240.474,3.752089
8246.259,3.765288
8252.045,3.788084
8257.83,3.785499
8263.616,3.823229
8269.401,3.844049
8275.187,3.904019
8280.973,3.925379
8286.758,3.989723
8292.543,4.059766
8298.329,4.11401
8304.114,4.183898
8309.899,4.248991
8315.686,4.312067
8321.471,4.393882
8327.256,4.46237
8333.042,4.535398
8338.827,4.599442
8344.612,4.694357
8350.398,4.789438
8356.184,4.871531
8361.969,4.970357
8367.755,5.059052
8373.54,5.139008
8379.325,5.216646
8385.111,5.295147
8390.896,5.353729
8396.683,5.412195
8402.468,5.452527
8408.253,5.489654
8414.039,5.492221
8419.824,5.513241
8425.609,5.553399
8431.396,5.615782
8437.181,5.718488
8442.966,5.836078
8448.752,5.952105
8454.537,6.079438
8460.322,6.20738
8466.108,6.283031
8471.894,6.391994
8477.679,6.49386
8483.465,6.599399
8489.25,6.695517
8495.035,6.776974
8500.821,6.848611
8506.606,6.915245
8512.392,6.953494
8518.178,6.998044
8523.963,7.042053
8529.748,7.093658
8535.534,7.114159
8541.319,7.100646
8547.105,7.040104
8552.891,6.95056
8558.676,6.882238
8564.462,6.837044
8570.247,6.900494
8576.032,7.019863
8581.818,7.157365
8587.604,7.290345
8593.389,7.45914
8599.175,7.634628
8604.96,7.796988
8610.745,7.973473
8616.531,8.114569
8622.316,8.269979
8628.102,8.422608
8633.888,8.545078
8639.673,8.650808
8645.458,8.754004
8651.244,8.843587
8657.029,8.91268
8662.814,8.996369
8668.601,9.060332
8674.386,9.128817
8680.172,9.187966
8685.957,9.243804
8691.742,9.322727
8697.528,9.401598
8703.313,9.481489
8709.099,9.590703
8714.885,9.661772
8720.67,9.759348
8726.455,9.839556
8732.241,9.936711
8738.026,10.0217
8743.812,10.09541
8749.598,10.17326
8755.383,10.23779
8761.168,10.30544
8766.954,10.3668
8772.739,10.4307
8778.524,10.45995
8784.311,10.51635
8790.096,10.55899
8795.881,10.58876
8801.667,10.63216
8807.452,10.65955
8813.237,10.6726
8819.023,10.70547
8824.809,10.72816
8830.595,10.73526
8836.38,10.76231
8842.165,10.78286
8847.951,10.76556
8853.736,10.79809
8859.521,10.78971
8865.308,10.82396
8871.093,10.82673
8876.878,10.83533
8882.664,10.83428
8888.449,10.81824
8894.234,10.82763
8900.021,10.83362
8905.806,10.81866
8911.591,10.81606
8917.377,10.83407
8923.162,10.8187
8928.947,10.81185
8934.733,10.83511
8940.519,10.82344
8946.304,10.81069
8952.09,10.81751
8957.875,10.80684
8963.661,10.81418
8969.446,10.80319
8975.231,10.81279
8981.018,10.83579
8986.803,10.81061
8992.588,10.82628
8998.374,10.82764
9004.159,10.85511
9009.944,10.84115
9015.73,10.86508
9021.516,10.85599
9027.301,10.86795
9033.087,10.84959
9038.872,10.86762
9044.657,10.88016
9050.443,10.87265
9056.229,10.87347
9062.014,10.87355
9067.8,10.89074
9073.585,10.88328
9079.37,10.88541
9085.156,10.89973
9090.941,10.88115
9096.727,10.88542
9102.513,10.89415
9108.298,10.90192
9114.084,10.90024
9119.869,10.86187
9125.654,10.88773
9131.44,10.87095
9137.226,10.86725
9143.011,10.84914
9148.797,10.86189
9154.582,10.86775
9160.367,10.83899
9166.153,10.83966
9171.938,10.83542
9177.724,10.8392
9183.51,10.82105
9189.295,10.81045
9195.08,10.79465
9200.866,10.79118
9206.651,10.78889
9212.437,10.79571
9218.223,10.76323
9224.008,10.76415
9229.793,10.75805
9235.579,10.74681
9241.364,10.76743
9247.15,10.73834
9252.936,10.73014
9258.721,10.7321
9264.507,10.71259
9270.292,10.72174
9276.077,10.68863
9281.863,10.68476
9287.648,10.6783
9293.434,10.676
9299.22,10.66653
9305.005,10.6828
9310.79,10.67989
9316.576,10.67727
9322.361,10.67834
9328.146,10.6808
9333.933,10.67868
9339.718,10.64418
9345.503,10.65759
9351.289,10.66509
9357.074,10.65972
9362.859,10.6147
9368.646,10.6209
9374.431,10.62337
9380.217,10.60648
9386.002,10.60689
9391.787,10.56028
9397.573,10.56627
9403.358,10.54451
9409.144,10.5379
9414.93,10.52929
9420.715,10.50313
9426.5,10.49518
9432.286,10.4688
9438.071,10.476
9443.856,10.45514
9449.643,10.44527
9455.428,10.41374
9461.213,10.37101
9466.999,10.37488
9472.784,10.34713
9478.569,10.34909
9484.355,10.35595
9490.141,10.32879
9495.926,10.32412
9501.712,10.30463
9507.497,10.29287
9513.282,10.29153
9519.068,10.27662
9524.854,10.26366
9530.64,10.25731
9536.425,10.2481
9542.21,10.20818
9547.996,10.2115
9553.781,10.18722
9559.566,10.17393
9565.353,10.16484
9571.138,10.1608
9576.923,10.14743
9582.709,10.13845
9588.494,10.13034
9594.279,10.09881
9600.065,10.13787
9605.851,10.13707
9611.636,10.15829
9617.422,10.15294
9623.207,10.18178
9628.992,10.21689
9634.778,10.19048
9640.563,10.23411
9646.349,10.22032
9652.135,10.24341
9657.92,10.28561
9663.706,10.30305
9669.491,10.33788
9675.276,10.35611
9681.063,10.37952
9686.848,10.36561
9692.633,10.4073
9698.419,10.43855
9704.204,10.45981
9709.989,10.46588
9715.775,10.51053
9721.561,10.52327
9727.346,10.54341
9733.132,10.56302
9738.917,10.56473
9744.702,10.60793
9750.488,10.60442
9756.273,10.62951
9762.059,10.63929
9767.845,10.66386
9773.63,10.67505
9779.415,10.68908
9785.201,10.66499
9790.986,10.67436
9796.771,10.63484
9802.558,10.64848
9808.343,10.65732
9814.129,10.65093
9819.914,10.65353
9825.699,10.66794
9831.485,10.67347
9837.271,10.66691
9843.056,10.72907
9848.842,10.72721
9854.627,10.74992
9860.412,10.80306
9866.198,10.77379
9871.983,10.80636
9877.769,10.8305
9883.555,10.85624
9889.34,10.88988
9895.125,10.90276
9900.911,10.92885
9906.696,10.97914
9912.481,10.97067
9918.268,10.98577
9924.053,11.00681
9929.838,11.02787
9935.624,11.04916
9941.409,11.07434
9947.195,11.06007
9952.98,11.0843
9958.766,11.11091
9964.552,11.13482
9970.337,11.15638
9976.122,11.16102
9981.908,11.16044
9987.693,11.15171
9993.479,11.17115
9999.265,11.18265
10005.05,11.18965
10010.83,11.22844
10016.62,11.18393
10022.41,11.22674
10028.19,11.23519
10033.98,11.25923
10039.76,11.25448
10045.55,11.25085
10051.33,11.29229
10057.12,11.29672
10062.9,11.30355
10068.69,11.3118
10074.48,11.29002
10080.26,11.32132
10086.05,11.3252
10091.83,11.31816
10097.62,11.31487
10103.4,11.34797
10109.19,11.32774
10114.97,11.33998
10120.76,11.33722
10126.54,11.35195
10132.33,11.3537
10138.12,11.37554
10143.9,11.38767
10149.69,11.35909
10155.47,11.36747
10161.26,11.36088
10167.04,11.37448
10172.83,11.37495
10178.61,11.40036
10184.4,11.36312
10190.19,11.39785
10195.97,11.38428
10201.76,11.38094
10207.54,11.39441
10213.33,11.4176
10219.11,11.39148
10224.9,11.3777
10230.68,11.36741
10236.47,11.37825
10242.25,11.36899
10248.04,11.38151
10253.83,11.37693
10259.61,11.38174
10265.4,11.4085
10271.18,11.33821
10276.97,11.34198
10282.75,11.32048
10288.54,11.34177
10294.32,11.33637
10300.11,11.37055
10305.9,11.36006
10311.68,11.35518
10317.47,11.31922
10323.25,11.3985
10329.04,11.33335
10334.82,11.30467
10340.61,11.31983
10346.39,11.3581
10352.18,11.32295
10357.96,11.31335
10363.75,11.30702
10369.54,11.27005
10375.32,11.29176
10381.11,11.29572
10386.89,11.27753
10392.68,11.30747
10398.46,11.27116
10404.25,11.32183
10410.03,11.2326
10415.82,11.26059
10421.61,11.25338
10427.39,11.21962
10433.18,11.17255
10438.96,11.17268
10444.75,11.19728
10450.53,11.15287
10456.32,11.1976
10462.1,11.1505
10467.89,11.16292
10473.67,11.14299
10479.46,11.14759
10485.25,11.13862
10491.03,11.0474
10496.82,10.99666
10502.6,11.01635
10508.39,11.00559
10514.17,10.95521
10519.96,10.94206
10525.74,10.92728
10531.53,10.81363
10537.32,10.84287
10543.1,10.86923
10548.89,10.7994
10554.67,10.79184
10560.46,10.70089
10566.24,10.67993
10572.03,10.63261
10577.81,10.55476
10583.6,10.45666
10589.38,10.45165
10595.17,10.40262
10600.96,10.30987
10606.74,10.21663
10612.53,10.24675
10618.31,10.11294
10624.1,10.0409
10629.88,9.977731
10635.67,9.831419
10641.45,9.759016
10647.24,9.730272
10653.03,9.634983
10658.81,9.54652
10664.6,9.476364
10670.38,9.358766
10676.17,9.29143
10681.95,9.245281
10687.74,9.160917
10693.52,9.16553
10699.31,9.138004
10705.09,9.09316
10710.88,9.022417
10716.67,9.033878
10722.45,9.042794
10728.24,9.018586
10734.02,9.046064
10739.81,9.027459
10745.59,9.096958
10751.38,9.111757
10757.16,9.107259
10762.95,9.138028
10768.74,9.171226
10774.52,9.193673
10780.31,9.298524
10786.09,9.306504
10791.88,9.367489
10797.66,9.428734
10803.45,9.487584
10809.23,9.493563
10815.02,9.552865
10820.8,9.564751
10826.59,9.642864
10832.38,9.729244
10838.16,9.823201
10843.95,9.869994
10849.73,9.932964
10855.52,9.961195
10861.3,9.989813
10867.09,10.02483
10872.87,10.14573
10878.66,10.15138
10884.45,10.17245
10890.23,10.20542
10896.02,10.31017
10901.8,10.36548
10907.59,10.38357
10913.37,10.4853
10919.16,10.46864
10924.94,10.54045
10930.73,10.55202
10936.51,10.62217
10942.3,10.64617
10948.09,10.65729
10953.87,10.71841
10959.66,10.79425
10965.44,10.78107
10971.23,10.78891
10977.01,10.82988
10982.8,10.87519
10988.58,10.93324
10994.37,10.97865
11000.16,10.95965
11005.94,11.02123
11011.73,11.00336
11017.51,11.0481
11023.3,11.17371
11029.08,11.07586
11034.87,11.13354
11040.65,11.23176
11046.44,11.20974
11052.22,11.22852
11058.01,11.21453
11063.79,11.22889
11069.58,11.21986
11075.37,11.27828
11081.15,11.32372
11086.94,11.33148
11092.72,11.31853
11098.51,11.3088
11104.29,11.32015
11110.08,11.34377
11115.87,11.32318
11121.65,11.35539
11127.44,11.26652
11133.22,11.39595
11139.01,11.40273
11144.79,11.46062
11150.58,11.42611
11156.36,11.38706
11162.15,11.40534
11167.93,11.42039
11173.72,11.49354
11179.5,11.43973
11185.29,11.51728
11191.08,11.53144
11196.86,11.53492
11202.65,11.57787
11208.43,11.50469
11214.22,11.59174
11220.0,11.66585
11225.79,11.63794
11231.58,11.68337
11237.36,11.66479
11243.15,11.58824
11248.93,11.61537
11254.72,11.66133
11260.5,11.67074
11266.29,11.67704
11272.07,11.71439
11277.86,11.68584
11283.64,11.68389
11289.43,11.62497
11295.21,11.73021
11301.0,11.70717
11306.79,11.72904
11312.57,11.8324
11318.36,11.73905
11324.14,11.75028
11329.93,11.91454
11335.71,11.77928
11341.5,11.82319
11347.28,11.85113
11353.07,11.76303
11358.86,11.728
11364.64,11.81535
11370.43,11.80231
11376.21,11.79414
11382.0,11.79594
11387.78,11.91933
11393.57,11.87611
11399.35,11.74084
11405.14,11.85115
11410.92,11.88285
11416.71,11.84967
11422.5,11.90565
11428.28,11.88712
11434.07,11.87934
11439.85,11.94327
11445.64,11.91059
11451.42,11.94101
11457.21,11.88519
11462.99,11.93063
11468.78,11.96192
11474.57,11.87685
11480.35,11.88436
11486.14,11.89296
11491.92,11.97641
11497.71,11.99754
11503.49,11.88141
11509.28,11.9606
11515.06,11.97121
11520.85,11.92223
11526.63,11.87423
11532.42,12.1105
11538.21,11.91355
11543.99,11.94471
11549.78,12.0251
11555.56,11.96845
11561.35,11.99649
11567.13,11.98101
11572.92,11.96548
11578.7,12.04706
11584.49,11.91658
11590.28,12.06909
11596.06,12.03045
11601.85,12.07161
11607.63,12.09887
11613.42,11.9709
11619.2,12.0574
11624.99,12.05464
11630.77,12.06138
11636.56,12.04347
11642.34,12.09024
11648.13,12.08015
11653.92,12.06593
11659.7,12.04104
11665.49,12.00633
11671.27,12.12822
11677.06,12.07971
11682.84,12.10301
11688.63,12.05552
11694.41,12.0012
11700.2,12.01172
11705.99,12.00338
11711.77,12.03923
11717.56,12.06564
11723.34,11.93752
11729.13,11.91693
11734.91,12.20612
11740.7,12.05069
11746.48,12.02926
11752.27,12.08688
11758.05,12.05741
11763.84,11.94239
11769.63,12.0473
11775.41,12.07405
11781.2,12.04928
11786.98,12.17111
11792.77,11.91584
11798.55,12.01481
11804.34,11.88132
11810.12,11.93413
11815.91,12.16313
11821.7,12.00793
11827.48,12.14132
11833.27,11.90207
11839.05,12.12938
11844.84,12.00215
11850.62,12.13696
11856.41,12.12022
11862.19,12.11774
11867.98,12.02663
11873.76,12.06471
11879.55,12.0811
11885.34,12.08901
11891.12,12.05808
11896.91,12.07486
11902.69,12.06782
11908.48,12.02715
11914.26,12.0719
11920.05,12.1665
11925.83,11.99104
11931.62,12.08333
11937.41,12.14367
11943.19,11.95255
11948.98,11.98562
11954.76,12.00561
11960.55,11.8484
11966.33,12.15038
11972.12,12.14293
11977.9,11.94339
11983.69,11.82913
11989.47,12.03592
11995.26,12.15889
11999.12,11.98409