File: Data/NIR/H0008HDPE_6.csv
Wavenumber,Intensity
3999.706,3.775532
4005.491,3.774775
4011.277,3.774546
4017.062,3.764975
4022.848,3.76375
4028.633,3.767247
4034.419,3.776029
4040.204,3.776925
4045.99,3.785376
4051.775,3.784536
4057.561,3.783422
4063.346,3.788067
4069.132,3.787098
4074.917,3.788838
4080.703,3.794633
4086.488,3.783087
4092.274,3.790658
4098.059,3.787576
4103.845,3.795662
4109.63,3.793004
4115.416,3.797014
4121.201,3.798902
4126.987,3.796436
4132.772,3.803209
4138.558,3.796159
4144.343,3.805289
4150.129,3.80924
4155.914,3.809891
4161.7,3.812873
4167.485,3.818415
4173.271,3.820466
4179.056,3.828127
4184.842,3.828544
4190.627,3.837416
4196.413,3.84908
4202.198,3.86075
4207.983,3.869126
4213.769,3.873833
4219.555,3.884484
4225.34,3.893373
4231.125,3.901462
4236.911,3.909189
4242.697,3.905516
4248.482,3.897746
4254.268,3.900507
4260.053,3.91663
4265.838,3.928126
4271.624,3.939381
4277.41,3.946111
4283.195,3.957282
4288.98,3.957491
4294.766,3.964392
4300.552,3.962422
4306.337,3.958401
4312.123,3.943143
4317.908,3.93172
4323.693,3.920017
4329.479,3.928394
4335.265,3.933985
4341.05,3.946212
4346.835,3.947309
4352.621,3.966185
4358.407,3.974938
4364.192,3.98196
4369.978,3.995053
4375.763,4.003636
4381.548,4.023324
4387.334,4.044347
4393.12,4.080637
4398.905,4.121581
4404.69,4.183634
4410.476,4.256905
4416.262,4.321037
4422.047,4.382327
4427.833,4.432887
4433.618,4.46874
4439.403,4.514418
4445.189,4.572532
4450.975,4.64024
4456.76,4.714398
4462.545,4.770913
4468.331,4.823156
4474.116,4.855666
4479.902,4.918308
4485.688,4.994274
4491.473,5.067932
4497.258,5.1348
4503.044,5.208634
4508.83,5.284981
4514.615,5.355149
4520.4,5.426403
4526.186,5.491156
4531.971,5.55409
4537.757,5.631032
4543.542,5.698458
4549.328,5.77126
4555.113,5.85402
4560.899,5.935958
4566.685,6.01427
4572.47,6.077465
4578.255,6.125588
4584.041,6.172849
4589.826,6.205641
4595.612,6.231853
4601.397,6.241985
4607.183,6.270769
4612.968,6.30052
4618.754,6.332981
4624.539,6.369741
4630.325,6.398115
4636.11,6.408757
4641.896,6.420445
4647.681,6.418896
4653.467,6.393749
4659.252,6.333643
4665.038,6.251706
4670.823,6.262194
4676.609,6.36327
4682.394,6.459799
4688.18,6.509694
4693.965,6.524099
4699.751,6.522355
4705.536,6.510044
4711.322,6.472217
4717.107,6.426977
4722.893,6.397256
4728.678,6.377386
4734.464,6.368958
4740.249,6.36823
4746.035,6.351973
4751.82,6.327926
4757.605,6.298678
4763.391,6.263448
4769.177,6.203378
4774.962,6.132082
4780.748,6.097551
4786.533,6.088424
4792.319,6.071742
4798.104,6.053024
4803.89,6.023882
4809.675,5.98068
4815.46,5.925409
4821.246,5.87861
4827.032,5.843891
4832.817,5.809683
4838.603,5.765139
4844.388,5.713586
4850.174,5.652206
4855.959,5.601405
4861.745,5.556664
4867.53,5.530134
4873.315,5.532731
4879.101,5.559293
4884.887,5.582648
4890.672,5.612532
4896.458,5.633653
4902.243,5.648917
4908.028,5.669209
4913.814,5.672113
4919.6,5.671839
4925.385,5.665423
4931.17,5.663951
4936.956,5.669127
4942.742,5.657064
4948.527,5.611765
4954.313,5.51882
4960.098,5.400227
4965.883,5.375561
4971.669,5.429851
4977.455,5.468562
4983.24,5.505113
4989.025,5.553883
4994.811,5.61329
5000.597,5.690444
5006.382,5.742119
5012.167,5.762065
5017.953,5.759068
5023.738,5.782148
5029.524,5.812677
5035.31,5.827979
5041.095,5.831219
5046.88,5.833506
5052.666,5.815245
5058.451,5.776938
5064.237,5.761817
5070.022,5.767094
5075.808,5.772088
5081.593,5.7611
5087.379,5.747793
5093.165,5.734208
5098.95,5.7225
5104.735,5.735643
5110.521,5.760793
5116.307,5.775586
5122.092,5.787882
5127.877,5.806533
5133.663,5.814962
5139.448,5.808872
5145.234,5.785671
5151.02,5.756338
5156.805,5.737441
5162.59,5.734229
5168.376,5.741264
5174.161,5.736827
5179.947,5.731297
5185.732,5.725477
5191.518,5.728143
5197.303,5.743472
5203.089,5.756026
5208.874,5.757396
5214.66,5.74394
5220.445,5.751141
5226.231,5.769201
5232.016,5.780179
5237.802,5.789223
5243.587,5.826662
5249.373,5.82502
5255.158,5.850695
5260.944,5.861503
5266.729,5.850419
5272.515,5.83215
5278.3,5.834004
5284.086,5.855939
5289.871,5.862755
5295.657,5.82805
5301.442,5.797072
5307.228,5.777453
5313.013,5.797019
5318.799,5.889555
5324.584,5.946138
5330.37,5.945354
5336.155,5.937557
5341.94,5.877307
5347.726,5.79574
5353.512,5.729471
5359.297,5.659038
5365.083,5.610999
5370.868,5.559167
5376.654,5.546988
5382.439,5.531684
5388.225,5.503024
5394.01,5.476339
5399.796,5.41764
5405.581,5.366645
5411.367,5.313688
5417.152,5.200155
5422.938,5.168649
5428.723,5.165926
5434.509,5.147682
5440.294,5.15017
5446.08,5.129265
5451.865,5.101452
5457.65,5.100644
5463.436,5.086282
5469.222,5.065795
5475.007,5.056942
5480.792,5.000131
5486.578,4.965569
5492.363,4.962499
5498.149,4.969631
5503.935,4.984005
5509.72,5.002398
5515.505,5.024911
5521.291,5.032506
5527.077,5.026782
5532.862,5.026317
5538.647,5.008646
5544.433,5.000823
5550.219,4.992407
5556.004,4.994164
5561.79,5.014093
5567.575,5.056071
5573.36,5.1181
5579.146,5.187242
5584.932,5.236853
5590.717,5.250942
5596.502,5.235604
5602.288,5.188447
5608.073,5.136157
5613.859,5.073734
5619.645,5.027145
5625.43,4.974817
5631.215,4.932326
5637.001,4.87787
5642.786,4.801086
5648.572,4.673611
5654.357,4.490894
5660.143,4.364028
5665.929,4.347308
5671.714,4.419585
5677.5,4.521132
5683.285,4.60334
5689.07,4.668947
5694.856,4.746075
5700.642,4.847531
5706.427,4.947872
5712.212,5.001092
5717.998,4.976437
5723.783,4.839235
5729.569,4.621789
5735.354,4.569134
5741.14,4.5391
5746.925,4.460432
5752.711,4.382543
5758.496,4.310791
5764.282,4.25952
5770.067,4.216382
5775.853,4.211645
5781.638,4.226376
5787.424,4.254143
5793.209,4.288548
5798.995,4.323036
5804.78,4.360495
5810.566,4.404091
5816.352,4.455298
5822.137,4.507076
5827.922,4.5859
5833.708,4.675535
5839.493,4.771724
5845.279,4.905714
5851.064,5.099818
5856.85,5.374252
5862.635,5.734243
5868.421,6.122864
5874.206,6.498763
5879.992,6.829525
5885.777,7.0995
5891.563,7.326399
5897.348,7.522038
5903.134,7.712121
5908.919,7.881067
5914.705,8.047699
5920.49,8.187226
5926.276,8.339475
5932.061,8.492493
5937.847,8.637384
5943.632,8.772204
5949.418,8.906122
5955.203,9.074911
5960.989,9.280619
5966.774,9.536584
5972.56,9.797709
5978.345,10.04009
5984.131,10.25575
5989.916,10.46002
5995.702,10.64494
6001.487,10.81764
6007.272,10.98106
6013.058,11.14
6018.844,11.30657
6024.629,11.46888
6030.415,11.61287
6036.2,11.73376
6041.985,11.84437
6047.771,11.94703
6053.557,12.0402
6059.342,12.12634
6065.128,12.19287
6070.913,12.25737
6076.698,12.32449
6082.484,12.38445
6088.27,12.43353
6094.055,12.43634
6099.841,12.33638
6105.626,12.22523
6111.412,12.25635
6117.197,12.3975
6122.982,12.51442
6128.768,12.60439
6134.554,12.70004
6140.339,12.78592
6146.125,12.85135
6151.91,12.90559
6157.695,12.9602
6163.481,13.01181
6169.267,13.07242
6175.052,13.12186
6180.837,13.15523
6186.623,13.17968
6192.408,13.20452
6198.194,13.23416
6203.979,13.25728
6209.765,13.28775
6215.551,13.3081
6221.336,13.34329
6227.121,13.36301
6232.907,13.38603
6238.692,13.39509
6244.478,13.41154
6250.264,13.41405
6256.049,13.4194
6261.834,13.43149
6267.62,13.44227
6273.405,13.45258
6279.191,13.46562
6284.977,13.47423
6290.762,13.48194
6296.547,13.48219
6302.333,13.49849
6308.118,13.49758
6313.904,13.49891
6319.689,13.48988
6325.475,13.47637
6331.26,13.44923
6337.046,13.42999
6342.831,13.39774
6348.617,13.36441
6354.402,13.33023
6360.188,13.29755
6365.974,13.23054
6371.759,13.14126
6377.544,13.08217
6383.33,13.05904
6389.115,13.03553
6394.901,13.01815
6400.687,12.97113
6406.472,12.88537
6412.257,12.78
6418.043,12.70092
6423.828,12.65806
6429.614,12.64487
6435.399,12.60203
6441.185,12.51356
6446.97,12.39889
6452.756,12.26378
6458.541,12.13341
6464.327,11.92082
6470.112,11.58866
6475.897,11.17004
6481.684,10.90115
6487.469,10.94091
6493.254,11.10665
6499.04,11.2892
6504.825,11.44291
6510.61,11.56409
6516.396,11.65487
6522.182,11.73936
6527.967,11.80614
6533.753,11.86277
6539.538,11.90615
6545.324,11.95341
6551.109,11.99323
6556.895,12.03457
6562.68,12.07149
6568.466,12.12712
6574.251,12.18431
6580.037,12.22529
6585.822,12.25006
6591.607,12.26867
6597.393,12.28067
6603.179,12.28002
6608.964,12.28182
6614.75,12.28117
6620.535,12.27708
6626.32,12.26648
6632.106,12.25557
6637.892,12.23659
6643.677,12.21088
6649.463,12.17965
6655.248,12.14425
6661.034,12.1074
6666.819,12.07138
6672.604,12.03228
6678.39,11.98804
6684.176,11.93723
6689.961,11.88963
6695.747,11.83595
6701.532,11.77088
6707.317,11.69349
6713.103,11.61769
6718.889,11.53888
6724.674,11.48
6730.459,11.41666
6736.245,11.35992
6742.03,11.29312
6747.816,11.23117
6753.602,11.17417
6759.387,11.10739
6765.173,11.05029
6770.958,10.96433
6776.743,10.87789
6782.529,10.75063
6788.314,10.61672
6794.1,10.48297
6799.886,10.33173
6805.671,10.19236
6811.457,10.06631
6817.242,9.941491
6823.027,9.78932
6828.813,9.61912
6834.599,9.486746
6840.384,9.416532
6846.169,9.370824
6851.955,9.311721
6857.74,9.244839
6863.526,9.186033
6869.312,9.12979
6875.097,9.063566
6880.882,8.982556
6886.668,8.889036
6892.453,8.797432
6898.239,8.713742
6904.024,8.658834
6909.81,8.609507
6915.596,8.551482
6921.381,8.458487
6927.166,8.356902
6932.952,8.222109
6938.737,8.074847
6944.523,7.925979
6950.309,7.837334
6956.094,7.824028
6961.879,7.846023
6967.665,7.861483
6973.45,7.878767
6979.236,7.883205
6985.021,7.861993
6990.807,7.815606
6996.592,7.76599
7002.378,7.694029
7008.163,7.613842
7013.949,7.539433
7019.734,7.4822
7025.52,7.473853
7031.305,7.511137
7037.091,7.558239
7042.876,7.569123
7048.662,7.489841
7054.447,7.324652
7060.232,7.13571
7066.019,7.13252
7071.804,7.370036
7077.589,7.677683
7083.375,7.904015
7089.16,8.007111
7094.946,8.076384
7100.731,8.168702
7106.517,8.317138
7112.302,8.452816
7118.088,8.62544
7123.873,8.720821
7129.659,8.759993
7135.444,8.710124
7141.229,8.582278
7147.015,8.41243
7152.801,8.163098
7158.586,7.710772
7164.372,7.049395
7170.157,6.545182
7175.942,6.589283
7181.729,7.039024
7187.514,7.523533
7193.299,7.992027
7199.085,8.382397
7204.87,8.781247
7210.655,9.086325
7216.441,9.348634
7222.227,9.635188
7228.012,9.983126
7233.798,10.32272
7239.583,10.62618
7245.369,10.896
7251.154,11.19321
7256.939,11.46248
7262.725,11.7526
7268.511,12.00506
7274.296,12.26874
7280.082,12.51399
7285.867,12.76527
7291.652,12.99026
7297.438,13.21516
7303.224,13.43956
7309.009,13.68672
7314.794,13.89573
7320.58,14.09079
7326.365,14.29982
7332.151,14.3974
7337.937,14.56901
7343.722,14.66975
7349.508,14.73295
7355.293,14.83005
7361.079,14.88369
7366.864,14.9642
7372.649,15.00289
7378.435,15.06087
7384.221,15.09636
7390.006,15.13945
7395.792,15.17311
7401.577,15.19776
7407.362,15.22492
7413.148,15.25298
7418.934,15.2831
7424.719,15.28423
7430.504,15.30333
7436.29,15.33018
7442.075,15.34198
7447.861,15.36524
7453.646,15.38988
7459.432,15.40616
7465.218,15.42859
7471.003,15.43111
7476.788,15.4325
7482.574,15.44377
7488.359,15.43255
7494.145,15.43299
7499.931,15.41043
7505.716,15.40743
7511.501,15.41065
7517.287,15.40201
7523.072,15.4049
7528.858,15.39713
7534.644,15.37662
7540.429,15.37031
7546.214,15.35137
7552.0,15.33151
7557.785,15.3115
7563.571,15.29805
7569.356,15.27535
7575.142,15.26263
7580.927,15.2392
7586.713,15.22886
7592.498,15.20603
7598.284,15.179
7604.069,15.14851
7609.854,15.12313
7615.641,15.08188
7621.426,15.04542
7627.211,15.00708
7632.997,14.97057
7638.782,14.92518
7644.568,14.89005
7650.354,14.86317
7656.139,14.82
7661.924,14.79722
7667.71,14.76672
7673.495,14.72975
7679.281,14.71354
7685.066,14.69511
7690.852,14.67411
7696.637,14.6548
7702.423,14.64842
7708.208,14.6185
7713.994,14.59691
7719.779,14.56582
7725.564,14.55138
7731.35,14.52285
7737.136,14.51495
7742.921,14.49702
7748.707,14.47583
7754.492,14.44495
7760.277,14.406
7766.063,14.37241
7771.849,14.34991
7777.634,14.32685
7783.42,14.31985
7789.205,14.30794
7794.991,14.29991
7800.776,14.28283
7806.562,14.23676
7812.347,14.21831
7818.133,14.19539
7823.918,14.16623
7829.704,14.13948
7835.489,14.1049
7841.274,14.07369
7847.06,14.03193
7852.846,13.98779
7858.631,13.93523
7864.417,13.89476
7870.202,13.83201
7875.987,13.77747
7881.773,13.72029
7887.559,13.66233
7893.344,13.59528
7899.13,13.54518
7904.915,13.46814
7910.7,13.4145
7916.486,13.34572
7922.271,13.26888
7928.057,13.19611
7933.843,13.11125
7939.628,13.03576
7945.414,12.94984
7951.199,12.86324
7956.984,12.77288
7962.77,12.68178
7968.556,12.5681
7974.341,12.47149
7980.126,12.37902
7985.912,12.26855
7991.697,12.1619
7997.483,12.04961
8003.269,11.9356
8009.054,11.81448
8014.839,11.68675
8020.625,11.55878
8026.41,11.42916
8032.196,11.29923
8037.981,11.14173
8043.767,11.00652
8049.553,10.85604
8055.338,10.69556
8061.124,10.54337
8066.909,10.39074
8072.694,10.22682
8078.48,10.06789
8084.266,9.893859
8090.051,9.736374
8095.836,9.561224
8101.622,9.380711
8107.407,9.192406
8113.192,8.998407
8118.979,8.816251
8124.764,8.612097
8130.55,8.405428
8136.335,8.201846
8142.12,8.011497
8147.906,7.802466
8153.691,7.612377
8159.477,7.398108
8165.263,7.19087
8171.048,6.981949
8176.833,6.789483
8182.619,6.607006
8188.404,6.451274
8194.189,6.312093
8199.976,6.209901
8205.761,6.11778
8211.546,6.054082
8217.332,6.026243
8223.117,6.030758
8228.902,6.042533
8234.688,6.058777
8240.474,6.083338
8246.259,6.102023
8252.045,6.133943
8257.83,6.174914
8263.616,6.24539
8269.401,6.326972
8275.187,6.420664
8280.973,6.535266
8286.758,6.666526
8292.543,6.805374
8298.329,6.948194
8304.114,7.103778
8309.899,7.241588
8315.686,7.385119
8321.471,7.526094
8327.256,7.675581
8333.042,7.815437
8338.827,7.978102
8344.612,8.148904
8350.398,8.357937
8356.184,8.553329
8361.969,8.775536
8367.755,8.976907
8373.54,9.177927
8379.325,9.364007
8385.111,9.528985
8390.896,9.647187
8396.683,9.736146
8402.468,9.779276
8408.253,9.785163
8414.039,9.724302
8419.824,9.673841
8425.609,9.677239
8431.396,9.731492
8437.181,9.879012
8442.966,10.068
8448.752,10.2852
8454.537,10.50725
8460.322,10.68329
8466.108,10.80169
8471.894,10.96117
8477.679,11.14498
8483.465,11.32918
8489.25,11.53154
8495.035,11.68696
8500.821,11.79553
8506.606,11.85641
8512.392,11.88225
8518.178,11.93844
8523.963,12.01037
8529.748,12.07484
8535.534,12.08741
8541.319,12.02659
8547.105,11.87896
8552.891,11.67627
8558.676,11.40718
8564.462,11.23433
8570.247,11.33669
8576.032,11.60374
8581.818,11.88136
8587.604,12.19875
8593.389,12.55026
8599.175,12.91236
8604.96,13.25952
8610.745,13.57135
8616.531,13.85131
8622.316,14.11768
8628.102,14.34568
8633.888,14.55438
8639.673,14.71916
8645.458,14.90562
8651.244,15.06291
8657.029,15.18851
8662.814,15.32586
8668.601,15.42636
8674.386,15.5594
8680.172,15.65762
8685.957,15.77492
8691.742,15.89105
8697.528,16.01246
8703.313,16.14534
8709.099,16.25375
8714.885,16.36439
8720.67,16.50594
8726.455,16.60561
8732.241,16.74772
8738.026,16.87332
8743.812,16.98274
8749.598,17.09673
8755.383,17.21629
8761.168,17.30674
8766.954,17.38548
8772.739,17.48158
8778.524,17.54332
8784.311,17.61207
8790.096,17.66821
8795.881,17.70228
8801.667,17.7555
8807.452,17.79852
8813.237,17.82435
8819.023,17.84861
8824.809,17.87999
8830.595,17.91055
8836.38,17.93173
8842.165,17.96939
8847.951,17.94821
8853.736,17.97151
8859.521,17.97459
8865.308,18.01306
8871.093,18.0171
8876.878,18.00377
8882.664,18.01407
8888.449,18.00959
8894.234,18.01885
8900.021,18.00322
8905.806,18.0062
8911.591,17.97838
8917.377,17.98624
8923.162,17.97548
8928.947,17.9649
8934.733,17.95873
8940.519,17.95782
8946.304,17.95655
8952.09,17.94658
8957.875,17.94958
8963.661,17.96783
8969.446,17.97651
8975.231,17.97291
8981.018,18.00019
8986.803,18.00533
8992.588,18.02065
8998.374,18.04046
9004.159,18.04867
9009.944,18.05293
9015.73,18.07384
9021.516,18.09247
9027.301,18.10598
9033.087,18.10364
9038.872,18.13937
9044.657,18.13111
9050.443,18.13568
9056.229,18.14997
9062.014,18.1682
9067.8,18.18014
9073.585,18.18598
9079.37,18.17899
9085.156,18.20802
9090.941,18.19862
9096.727,18.22163
9102.513,18.20839
9108.298,18.22122
9114.084,18.21566
9119.869,18.2097
9125.654,18.21408
9131.44,18.21904
9137.226,18.19715
9143.011,18.19678
9148.797,18.19338
9154.582,18.18015
9160.367,18.1905
9166.153,18.17173
9171.938,18.17121
9177.724,18.15402
9183.51,18.15065
9189.295,18.13384
9195.08,18.09979
9200.866,18.11916
9206.651,18.10158
9212.437,18.09988
9218.223,18.08019
9224.008,18.07471
9229.793,18.08157
9235.579,18.06828
9241.364,18.0597
9247.15,18.0625
9252.936,18.03871
9258.721,18.05293
9264.507,18.00718
9270.292,18.01605
9276.077,17.98926
9281.863,17.97953
9287.648,17.99087
9293.434,17.95759
9299.22,17.98291
9305.005,17.99662
9310.79,17.99798
9316.576,18.01583
9322.361,18.00912
9328.146,18.01458
9333.933,18.03033
9339.718,18.00885
9345.503,17.99847
9351.289,17.98549
9357.074,17.97064
9362.859,17.96575
9368.646,17.95581
9374.431,17.93736
9380.217,17.91862
9386.002,17.89433
9391.787,17.86238
9397.573,17.86364
9403.358,17.83151
9409.144,17.79691
9414.93,17.77801
9420.715,17.75846
9426.5,17.74992
9432.286,17.69414
9438.071,17.68256
9443.856,17.66614
9449.643,17.63747
9455.428,17.59651
9461.213,17.55479
9466.999,17.52299
9472.784,17.49483
9478.569,17.49033
9484.355,17.48551
9490.141,17.44041
9495.926,17.42218
9501.712,17.4296
9507.497,17.4264
9513.282,17.38746
9519.068,17.36752
9524.854,17.3554
9530.64,17.35032
9536.425,17.32628
9542.21,17.29833
9547.996,17.27066
9553.781,17.25635
9559.566,17.24432
9565.353,17.20078
9571.138,17.19463
9576.923,17.16701
9582.709,17.13146
9588.494,17.11946
9594.279,17.10621
9600.065,17.11991
9605.851,17.15191
9611.636,17.16483
9617.422,17.19076
9623.207,17.24474
9628.992,17.29191
9634.778,17.30825
9640.563,17.35071
9646.349,17.38347
9652.135,17.4362
9657.92,17.52955
9663.706,17.55943
9669.491,17.61738
9675.276,17.6592
9681.063,17.70208
9686.848,17.73351
9692.633,17.78825
9698.419,17.84276
9704.204,17.88799
9709.989,17.93647
9715.775,17.98116
9721.561,18.03706
9727.346,18.08176
9733.132,18.12807
9738.917,18.16903
9744.702,18.23369
9750.488,18.24558
9756.273,18.28357
9762.059,18.3031
9767.845,18.33269
9773.63,18.34644
9779.415,18.3555
9785.201,18.37437
9790.986,18.38774
9796.771,18.33819
9802.558,18.36769
9808.343,18.37301
9814.129,18.36234
9819.914,18.37079
9825.699,18.39827
9831.485,18.39757
9837.271,18.41298
9843.056,18.48668
9848.842,18.50954
9854.627,18.56703
9860.412,18.6086
9866.198,18.65703
9871.983,18.69586
9877.769,18.76533
9883.555,18.82767
9889.34,18.86544
9895.125,18.90954
9900.911,18.97434
9906.696,19.00515
9912.481,19.02965
9918.268,19.05211
9924.053,19.10713
9929.838,19.11956
9935.624,19.18761
9941.409,19.21102
9947.195,19.19789
9952.98,19.25154
9958.766,19.289
9964.552,19.33994
9970.337,19.337
9976.122,19.36851
9981.908,19.40525
9987.693,19.42775
9993.479,19.44859
9999.265,19.47091
10005.05,19.49133
10010.83,19.50244
10016.62,19.50809
10022.41,19.54774
10028.19,19.56163
10033.98,19.59131
10039.76,19.61919
10045.55,19.63835
10051.33,19.68659
10057.12,19.69107
10062.9,19.70576
10068.69,19.73593
10074.48,19.72135
10080.26,19.74303
10086.05,19.77404
10091.83,19.78121
10097.62,19.77142
10103.4,19.78635
10109.19,19.77831
10114.97,19.81854
10120.76,19.83074
10126.54,19.81956
10132.33,19.84867
10138.12,19.83922
10143.9,19.86767
10149.69,19.85343
10155.47,19.85229
10161.26,19.8698
10167.04,19.89703
10172.83,19.86877
10178.61,19.91376
10184.4,19.89701
10190.19,19.88476
10195.97,19.89513
10201.76,19.90023
10207.54,19.90024
10213.33,19.93678
10219.11,19.92797
10224.9,19.93949
10230.68,19.89837
10236.47,19.87665
10242.25,19.86831
10248.04,19.90922
10253.83,19.91495
10259.61,19.89656
10265.4,19.92854
10271.18,19.93003
10276.97,19.86926
10282.75,19.88657
10288.54,19.86125
10294.32,19.87452
10300.11,19.88994
10305.9,19.90264
10311.68,19.90408
10317.47,19.85549
10323.25,19.92217
10329.04,19.88038
10334.82,19.84829
10340.61,19.83746
10346.39,19.85791
10352.18,19.85792
10357.96,19.83143
10363.75,19.90042
10369.54,19.80804
10375.32,19.83623
10381.11,19.82975
10386.89,19.8403
10392.68,19.85075
10398.46,19.83135
10404.25,19.85335
10410.03,19.76308
10415.82,19.8092
10421.61,19.76567
10427.39,19.73246
10433.18,19.68858
10438.96,19.68802
10444.75,19.68638
10450.53,19.62863
10456.32,19.68244
10462.1,19.61815
10467.89,19.64723
10473.67,19.62715
10479.46,19.61483
10485.25,19.60952
10491.03,19.50705
10496.82,19.4011
10502.6,19.42875
10508.39,19.38086
10514.17,19.33114
10519.96,19.31714
10525.74,19.25682
10531.53,19.12522
10537.32,19.06328
10543.1,19.11621
10548.89,18.99377
10554.67,18.93725
10560.46,18.8214
10566.24,18.77339
10572.03,18.70185
10577.81,18.58476
10583.6,18.45499
10589.38,18.34492
10595.17,18.27775
10600.96,18.12529
10606.74,18.02597
10612.53,17.93341
10618.31,17.75401
10624.1,17.65384
10629.88,17.47014
10635.67,17.31922
10641.45,17.19725
10647.24,17.08104
10653.03,16.8381
10658.81,16.71738
10664.6,16.59706
10670.38,16.44897
10676.17,16.30829
10681.95,16.19137
10687.74,16.06302
10693.52,16.01037
10699.31,15.92506
10705.09,15.82629
10710.88,15.80673
10716.67,15.84199
10722.45,15.81853
10728.24,15.75704
10734.02,15.83117
10739.81,15.86388
10745.59,15.93119
10751.38,15.93663
10757.16,16.00855
10762.95,16.0936
10768.74,16.1856
10774.52,16.22211
10780.31,16.32065
10786.09,16.45197
10791.88,16.58298
10797.66,16.66765
10803.45,16.80779
10809.23,16.85945
10815.02,16.98898
10820.8,17.0784
10826.59,17.1825
10832.38,17.37843
10838.16,17.49403
10843.95,17.64306
10849.73,17.73885
10855.52,17.80282
10861.3,17.92266
10867.09,18.03737
10872.87,18.18765
10878.66,18.31507
10884.45,18.34876
10890.23,18.44391
10896.02,18.57882
10901.8,18.71274
10907.59,18.77107
10913.37,18.8837
10919.16,18.95613
10924.94,19.0301
10930.73,19.10363
10936.51,19.27545
10942.3,19.31305
10948.09,19.36796
10953.87,19.47899
10959.66,19.60628
10965.44,19.64797
10971.23,19.64286
10977.01,19.79598
10982.8,19.79319
10988.58,19.90431
10994.37,19.95939
11000.16,19.97485
11005.94,20.01584
11011.73,20.04296
11017.51,20.13432
11023.3,20.24102
11029.08,20.16054
11034.87,20.23057
11040.65,20.31206
11046.44,20.27856
11052.22,20.33541
11058.01,20.36095
11063.79,20.32914
11069.58,20.41623
11075.37,20.39799
11081.15,20.44905
11086.94,20.44024
11092.72,20.4342
11098.51,20.49162
11104.29,20.47143
11110.08,20.47124
11115.87,20.48257
11121.65,20.52924
11127.44,20.41421
11133.22,20.58014
11139.01,20.58298
11144.79,20.62024
11150.58,20.61936
11156.36,20.64141
11162.15,20.63353
11167.93,20.63416
11173.72,20.71346
11179.5,20.72517
11185.29,20.75188
11191.08,20.81307
11196.86,20.86684
11202.65,20.87922
11208.43,20.95203
11214.22,21.02602
11220.0,21.02978
11225.79,21.0542
11231.58,21.05663
11237.36,21.13364
11243.15,21.19374
11248.93,21.15786
11254.72,21.27962
11260.5,21.17274
11266.29,21.21655
11272.07,21.29492
11277.86,21.27014
11283.64,21.34059
11289.43,21.25663
11295.21,21.44455
11301.0,21.33513
11306.79,21.41204
11312.57,21.45455
11318.36,21.41082
11324.14,21.47028
11329.93,21.60154
11335.71,21.48796
11341.5,21.56507
11347.28,21.52448
11353.07,21.53871
11358.86,21.54401
11364.64,21.55078
11370.43,21.4838
11376.21,21.59101
11382.0,21.54506
11387.78,21.68832
11393.57,21.72904
11399.35,21.57552
11405.14,21.64143
11410.92,21.6474
11416.71,21.63026
11422.5,21.71512
11428.28,21.7673
11434.07,21.67943
11439.85,21.73012
11445.64,21.80411
11451.42,21.8709
11457.21,21.86467
11462.99,21.84252
11468.78,21.83503
11474.57,21.81575
11480.35,21.90589
11486.14,21.87512
11491.92,21.88438
11497.71,21.93816
11503.49,21.86809
11509.28,21.89967
11515.06,21.96655
11520.85,22.05241
11526.63,21.99238
11532.42,22.14052
11538.21,22.01845
11543.99,22.0818
11549.78,22.14668
11555.56,21.98759
11561.35,22.07754
11567.13,22.21618
11572.92,22.05073
11578.7,22.146
11584.49,22.02347
11590.28,22.16466
11596.06,22.05325
11601.85,22.15718
11607.63,22.22604
11613.42,22.15663
11619.2,22.13983
11624.99,22.20894
11630.77,22.21438
11636.56,22.30415
11642.34,22.2277
11648.13,22.19527
11653.92,22.18486
11659.7,22.18731
11665.49,22.20556
11671.27,22.24619
11677.06,22.24939
11682.84,22.29236
11688.63,22.21273
11694.41,22.16205
11700.2,22.19694
11705.99,22.25271
11711.77,22.25336
11717.56,22.17212
11723.34,22.10585
11729.13,22.13259
11734.91,22.37686
11740.7,22.26908
11746.48,22.23237
11752.27,22.12009
11758.05,22.23634
11763.84,22.08546
11769.63,22.23431
11775.41,22.2369
11781.2,22.2128
11786.98,22.25339
11792.77,22.17761
11798.55,22.1188
11804.34,22.08651
11810.12,22.07038
11815.91,22.24813
11821.7,22.21343
11827.48,22.22025
11833.27,22.10712
11839.05,22.18934
11844.84,22.18502
11850.62,22.24297
11856.41,22.15711
11862.19,22.21882
11867.98,22.26144
11873.76,22.35232
11879.55,22.33551
11885.34,22.24483
11891.12,22.21782
11896.91,22.40966
11902.69,22.14277
11908.48,22.31437
11914.26,22.25527
11920.05,22.29882
11925.83,22.35715
11931.62,22.54271
11937.41,22.38281
11943.19,22.39192
11948.98,22.2663
11954.76,22.36344
11960.55,22.34016
11966.33,22.47192
11972.12,22.37105
11977.9,22.3685
11983.69,22.30234
11989.47,22.29506
11995.26,22.20911
11999.12,22.31829