File: Data/NIR/H0002LDPE_6.csv
Wavenumber,Intensity
3999.706,1.449304
4005.491,1.446552
4011.277,1.447704
4017.062,1.450843
4022.848,1.45311
4028.633,1.457188
4034.419,1.455924
4040.204,1.460199
4045.99,1.459138
4051.775,1.462826
4057.561,1.46456
4063.346,1.464914
4069.132,1.464432
4074.917,1.468194
4080.703,1.470512
4086.488,1.463408
4092.274,1.469059
4098.059,1.466953
4103.845,1.472092
4109.63,1.473169
4115.416,1.473391
4121.201,1.475912
4126.987,1.475022
4132.772,1.474646
4138.558,1.471506
4144.343,1.47674
4150.129,1.478429
4155.914,1.479788
4161.7,1.476412
4167.485,1.481233
4173.271,1.48047
4179.056,1.487123
4184.842,1.483009
4190.627,1.490226
4196.413,1.492975
4202.198,1.48967
4207.983,1.495151
4213.769,1.499578
4219.555,1.499722
4225.34,1.497905
4231.125,1.50294
4236.911,1.506153
4242.697,1.505314
4248.482,1.499873
4254.268,1.506824
4260.053,1.506703
4265.838,1.507736
4271.624,1.510508
4277.41,1.514853
4283.195,1.519923
4288.98,1.516585
4294.766,1.515716
4300.552,1.517919
4306.337,1.518319
4312.123,1.517615
4317.908,1.517649
4323.693,1.515232
4329.479,1.51717
4335.265,1.516254
4341.05,1.521276
4346.835,1.514532
4352.621,1.519493
4358.407,1.520543
4364.192,1.519459
4369.978,1.52334
4375.763,1.521737
4381.548,1.523188
4387.334,1.521434
4393.12,1.525447
4398.905,1.522158
4404.69,1.5251
4410.476,1.535012
4416.262,1.53066
4422.047,1.541657
4427.833,1.554995
4433.618,1.564154
4439.403,1.582759
4445.189,1.601636
4450.975,1.619993
4456.76,1.642281
4462.545,1.665696
4468.331,1.692367
4474.116,1.717685
4479.902,1.741503
4485.688,1.770777
4491.473,1.797861
4497.258,1.826128
4503.044,1.859517
4508.83,1.893499
4514.615,1.927312
4520.4,1.962856
4526.186,1.98804
4531.971,2.023524
4537.757,2.065656
4543.542,2.099814
4549.328,2.136645
4555.113,2.175734
4560.899,2.221351
4566.685,2.256411
4572.47,2.289952
4578.255,2.319879
4584.041,2.342305
4589.826,2.366781
4595.612,2.386973
4601.397,2.402635
4607.183,2.420954
4612.968,2.437557
4618.754,2.451505
4624.539,2.468305
4630.325,2.487678
4636.11,2.495391
4641.896,2.498411
4647.681,2.500212
4653.467,2.490139
4659.252,2.460902
4665.038,2.430547
4670.823,2.441107
4676.609,2.48357
4682.394,2.5245
4688.18,2.550875
4693.965,2.553449
4699.751,2.558992
4705.536,2.555359
4711.322,2.546929
4717.107,2.537104
4722.893,2.510988
4728.678,2.487452
4734.464,2.474101
4740.249,2.466298
4746.035,2.452427
4751.82,2.439017
4757.605,2.424779
4763.391,2.403754
4769.177,2.377765
4774.962,2.343496
4780.748,2.329293
4786.533,2.319766
4792.319,2.310708
4798.104,2.295812
4803.89,2.28053
4809.675,2.259766
4815.46,2.232959
4821.246,2.203904
4827.032,2.182542
4832.817,2.164189
4838.603,2.139829
4844.388,2.11096
4850.174,2.079918
4855.959,2.054905
4861.745,2.03335
4867.53,2.016815
4873.315,2.015303
4879.101,2.025982
4884.887,2.031677
4890.672,2.0434
4896.458,2.054466
4902.243,2.056139
4908.028,2.062643
4913.814,2.066057
4919.6,2.063384
4925.385,2.059934
4931.17,2.060565
4936.956,2.057035
4942.742,2.052887
4948.527,2.027706
4954.313,1.992161
4960.098,1.93658
4965.883,1.917748
4971.669,1.933636
4977.455,1.948382
4983.24,1.96413
4989.025,1.98296
4994.811,2.009427
5000.597,2.042558
5006.382,2.060436
5012.167,2.068755
5017.953,2.071052
5023.738,2.082239
5029.524,2.092753
5035.31,2.100883
5041.095,2.101501
5046.88,2.100664
5052.666,2.094238
5058.451,2.07947
5064.237,2.074772
5070.022,2.072566
5075.808,2.072879
5081.593,2.071893
5087.379,2.062099
5093.165,2.052584
5098.95,2.050983
5104.735,2.053706
5110.521,2.063347
5116.307,2.070266
5122.092,2.078324
5127.877,2.080852
5133.663,2.087307
5139.448,2.08015
5145.234,2.069652
5151.02,2.059768
5156.805,2.051162
5162.59,2.048605
5168.376,2.052523
5174.161,2.04894
5179.947,2.04542
5185.732,2.040717
5191.518,2.041027
5197.303,2.044903
5203.089,2.050524
5208.874,2.046419
5214.66,2.047851
5220.445,2.044323
5226.231,2.051761
5232.016,2.055268
5237.802,2.061203
5243.587,2.075646
5249.373,2.068069
5255.158,2.079242
5260.944,2.08716
5266.729,2.075234
5272.515,2.071826
5278.3,2.075554
5284.086,2.075103
5289.871,2.078508
5295.657,2.06843
5301.442,2.062696
5307.228,2.051389
5313.013,2.057244
5318.799,2.083628
5324.584,2.103929
5330.37,2.104422
5336.155,2.100065
5341.94,2.077264
5347.726,2.04534
5353.512,2.017143
5359.297,1.99221
5365.083,1.968536
5370.868,1.949269
5376.654,1.935392
5382.439,1.929496
5388.225,1.908341
5394.01,1.892879
5399.796,1.871728
5405.581,1.849944
5411.367,1.833663
5417.152,1.79358
5422.938,1.782666
5428.723,1.778128
5434.509,1.766514
5440.294,1.770545
5446.08,1.754052
5451.865,1.746222
5457.65,1.745891
5463.436,1.738982
5469.222,1.730838
5475.007,1.730437
5480.792,1.71346
5486.578,1.710265
5492.363,1.70518
5498.149,1.706263
5503.935,1.706447
5509.72,1.705711
5515.505,1.713775
5521.291,1.717064
5527.077,1.711907
5532.862,1.712105
5538.647,1.707704
5544.433,1.711025
5550.219,1.708586
5556.004,1.706187
5561.79,1.71111
5567.575,1.716985
5573.36,1.737659
5579.146,1.746446
5584.932,1.760559
5590.717,1.761353
5596.502,1.761019
5602.288,1.747281
5608.073,1.732269
5613.859,1.713493
5619.645,1.701696
5625.43,1.685853
5631.215,1.675985
5637.001,1.662005
5642.786,1.651544
5648.572,1.634283
5654.357,1.612544
5660.143,1.612035
5665.929,1.605334
5671.714,1.609048
5677.5,1.613989
5683.285,1.619907
5689.07,1.631353
5694.856,1.639341
5700.642,1.656334
5706.427,1.676435
5712.212,1.682642
5717.998,1.687414
5723.783,1.667218
5729.569,1.645248
5735.354,1.632465
5741.14,1.62385
5746.925,1.623135
5752.711,1.611522
5758.496,1.606267
5764.282,1.609861
5770.067,1.602982
5775.853,1.604934
5781.638,1.609226
5787.424,1.606595
5793.209,1.607014
5798.995,1.608407
5804.78,1.605887
5810.566,1.611235
5816.352,1.613517
5822.137,1.619808
5827.922,1.627209
5833.708,1.637789
5839.493,1.641263
5845.279,1.660882
5851.064,1.685892
5856.85,1.729474
5862.635,1.798926
5868.421,1.880734
5874.206,1.992282
5879.992,2.122971
5885.777,2.260947
5891.563,2.386144
5897.348,2.480391
5903.134,2.564941
5908.919,2.665362
5914.705,2.810499
5920.49,2.986692
5926.276,3.192333
5932.061,3.394856
5937.847,3.5785
5943.632,3.745412
5949.418,3.897661
5955.203,4.040977
5960.989,4.195366
5966.774,4.357089
5972.56,4.508232
5978.345,4.651659
5984.131,4.784422
5989.916,4.914963
5995.702,5.03004
6001.487,5.142061
6007.272,5.245213
6013.058,5.347937
6018.844,5.445136
6024.629,5.536426
6030.415,5.619843
6036.2,5.696933
6041.985,5.769131
6047.771,5.830612
6053.557,5.89116
6059.342,5.948495
6065.128,5.993723
6070.913,6.047355
6076.698,6.087799
6082.484,6.121219
6088.27,6.156721
6094.055,6.178267
6099.841,6.203161
6105.626,6.231524
6111.412,6.253971
6117.197,6.287633
6122.982,6.317483
6128.768,6.352809
6134.554,6.390387
6140.339,6.431708
6146.125,6.473535
6151.91,6.514569
6157.695,6.553118
6163.481,6.588206
6169.267,6.628818
6175.052,6.67099
6180.837,6.698922
6186.623,6.725237
6192.408,6.748169
6198.194,6.772978
6203.979,6.794493
6209.765,6.814633
6215.551,6.827137
6221.336,6.850906
6227.121,6.868002
6232.907,6.884162
6238.692,6.888837
6244.478,6.902413
6250.264,6.910623
6256.049,6.910609
6261.834,6.920477
6267.62,6.929749
6273.405,6.936512
6279.191,6.940909
6284.977,6.947911
6290.762,6.949593
6296.547,6.957252
6302.333,6.966323
6308.118,6.963042
6313.904,6.962566
6319.689,6.956421
6325.475,6.950054
6331.26,6.939952
6337.046,6.93055
6342.831,6.911432
6348.617,6.895358
6354.402,6.876563
6360.188,6.853888
6365.974,6.817827
6371.759,6.772576
6377.544,6.737831
6383.33,6.723475
6389.115,6.707422
6394.901,6.696019
6400.687,6.674812
6406.472,6.623811
6412.257,6.566265
6418.043,6.522769
6423.828,6.49402
6429.614,6.473942
6435.399,6.446126
6441.185,6.39964
6446.97,6.328427
6452.756,6.253306
6458.541,6.173717
6464.327,6.037241
6470.112,5.838238
6475.897,5.605922
6481.684,5.468322
6487.469,5.475479
6493.254,5.549753
6499.04,5.626388
6504.825,5.693357
6510.61,5.75139
6516.396,5.79521
6522.182,5.831431
6527.967,5.866539
6533.753,5.896565
6539.538,5.912107
6545.324,5.930124
6551.109,5.949096
6556.895,5.965301
6562.68,5.978873
6568.466,6.007395
6574.251,6.028139
6580.037,6.050144
6585.822,6.060931
6591.607,6.065742
6597.393,6.076177
6603.179,6.070166
6608.964,6.072446
6614.75,6.066559
6620.535,6.056531
6626.32,6.044274
6632.106,6.035595
6637.892,6.01777
6643.677,5.998795
6649.463,5.983498
6655.248,5.9595
6661.034,5.930243
6666.819,5.89938
6672.604,5.874635
6678.39,5.840044
6684.176,5.808654
6689.961,5.770568
6695.747,5.736902
6701.532,5.69061
6707.317,5.647354
6713.103,5.606904
6718.889,5.554473
6724.674,5.516217
6730.459,5.470297
6736.245,5.430215
6742.03,5.38024
6747.816,5.340484
6753.602,5.298573
6759.387,5.259196
6765.173,5.207156
6770.958,5.15764
6776.743,5.102141
6782.529,5.025774
6788.314,4.94592
6794.1,4.868021
6799.886,4.781575
6805.671,4.6951
6811.457,4.610659
6817.242,4.536704
6823.027,4.448276
6828.813,4.354931
6834.599,4.287841
6840.384,4.238797
6846.169,4.201027
6851.955,4.165897
6857.74,4.11333
6863.526,4.073913
6869.312,4.026475
6875.097,3.97824
6880.882,3.918021
6886.668,3.861302
6892.453,3.795812
6898.239,3.742196
6904.024,3.695557
6909.81,3.661739
6915.596,3.612618
6921.381,3.557069
6927.166,3.499959
6932.952,3.413115
6938.737,3.333146
6944.523,3.25442
6950.309,3.210403
6956.094,3.190782
6961.879,3.197299
6967.665,3.188742
6973.45,3.190692
6979.236,3.185719
6985.021,3.172159
6990.807,3.155106
6996.592,3.131043
7002.378,3.094798
7008.163,3.060256
7013.949,3.028988
7019.734,2.990889
7025.52,2.983487
7031.305,2.985801
7037.091,2.995015
7042.876,2.990103
7048.662,2.946566
7054.447,2.857601
7060.232,2.776832
7066.019,2.767958
7071.804,2.856091
7077.589,2.983067
7083.375,3.096404
7089.16,3.161538
7094.946,3.211894
7100.731,3.279666
7106.517,3.363382
7112.302,3.451961
7118.088,3.544722
7123.873,3.610065
7129.659,3.637949
7135.444,3.618376
7141.229,3.546156
7147.015,3.456423
7152.801,3.309847
7158.586,3.060633
7164.372,2.74591
7170.157,2.509903
7175.942,2.519152
7181.729,2.680533
7187.514,2.885859
7193.299,3.100086
7199.085,3.298503
7204.87,3.507244
7210.655,3.69932
7216.441,3.861709
7222.227,4.047603
7228.012,4.243865
7233.798,4.410044
7239.583,4.599793
7245.369,4.740077
7251.154,4.921457
7256.939,5.07611
7262.725,5.245992
7268.511,5.402731
7274.296,5.565813
7280.082,5.716381
7285.867,5.882739
7291.652,6.025994
7297.438,6.171593
7303.224,6.312295
7309.009,6.460598
7314.794,6.597838
7320.58,6.725101
7326.365,6.842294
7332.151,6.899538
7337.937,7.003589
7343.722,7.044639
7349.508,7.09528
7355.293,7.175538
7361.079,7.244498
7366.864,7.332461
7372.649,7.396627
7378.435,7.472262
7384.221,7.526493
7390.006,7.581625
7395.792,7.628675
7401.577,7.670446
7407.362,7.691592
7413.148,7.722105
7418.934,7.746376
7424.719,7.760237
7430.504,7.776975
7436.29,7.792509
7442.075,7.802976
7447.861,7.811032
7453.646,7.82813
7459.432,7.836054
7465.218,7.845438
7471.003,7.848195
7476.788,7.850557
7482.574,7.850709
7488.359,7.858654
7494.145,7.864083
7499.931,7.860954
7505.716,7.853421
7511.501,7.857307
7517.287,7.841232
7523.072,7.849194
7528.858,7.842393
7534.644,7.830362
7540.429,7.824392
7546.214,7.818002
7552.0,7.807237
7557.785,7.804952
7563.571,7.787328
7569.356,7.778337
7575.142,7.770586
7580.927,7.759017
7586.713,7.752833
7592.498,7.736585
7598.284,7.720743
7604.069,7.698549
7609.854,7.690793
7615.641,7.664938
7621.426,7.644536
7627.211,7.626099
7632.997,7.602005
7638.782,7.583117
7644.568,7.560285
7650.354,7.537223
7656.139,7.516723
7661.924,7.501844
7667.71,7.489388
7673.495,7.469409
7679.281,7.457362
7685.066,7.435494
7690.852,7.422803
7696.637,7.409439
7702.423,7.403538
7708.208,7.387713
7713.994,7.377925
7719.779,7.355602
7725.564,7.346026
7731.35,7.332133
7737.136,7.315897
7742.921,7.296622
7748.707,7.291669
7754.492,7.272135
7760.277,7.246117
7766.063,7.230128
7771.849,7.209481
7777.634,7.191269
7783.42,7.194462
7789.205,7.174616
7794.991,7.173018
7800.776,7.15305
7806.562,7.123701
7812.347,7.106187
7818.133,7.096323
7823.918,7.070714
7829.704,7.06134
7835.489,7.041095
7841.274,7.015358
7847.06,6.984027
7852.846,6.957538
7858.631,6.931672
7864.417,6.895873
7870.202,6.862842
7875.987,6.834608
7881.773,6.803601
7887.559,6.767514
7893.344,6.723025
7899.13,6.667242
7904.915,6.643256
7910.7,6.592752
7916.486,6.563632
7922.271,6.514931
7928.057,6.472853
7933.843,6.414513
7939.628,6.365869
7945.414,6.309659
7951.199,6.258918
7956.984,6.196152
7962.77,6.138742
7968.556,6.070084
7974.341,6.003807
7980.126,5.941922
7985.912,5.886411
7991.697,5.814819
7997.483,5.741633
8003.269,5.664615
8009.054,5.598678
8014.839,5.51012
8020.625,5.435337
8026.41,5.351717
8032.196,5.266816
8037.981,5.165925
8043.767,5.089295
8049.553,4.991791
8055.338,4.898719
8061.124,4.802296
8066.909,4.700404
8072.694,4.609877
8078.48,4.505648
8084.266,4.396808
8090.051,4.301721
8095.836,4.184063
8101.622,4.072569
8107.407,3.955584
8113.192,3.839695
8118.979,3.724028
8124.764,3.598546
8130.55,3.476044
8136.335,3.353373
8142.12,3.251677
8147.906,3.119007
8153.691,3.001941
8159.477,2.89056
8165.263,2.777098
8171.048,2.662615
8176.833,2.571941
8182.619,2.470025
8188.404,2.397504
8194.189,2.326533
8199.976,2.274198
8205.761,2.23454
8211.546,2.206879
8217.332,2.192078
8223.117,2.186878
8228.902,2.17301
8234.688,2.185018
8240.474,2.192042
8246.259,2.199289
8252.045,2.22432
8257.83,2.225524
8263.616,2.268976
8269.401,2.28852
8275.187,2.338991
8280.973,2.37671
8286.758,2.435793
8292.543,2.499862
8298.329,2.561662
8304.114,2.631066
8309.899,2.704138
8315.686,2.773333
8321.471,2.846547
8327.256,2.923538
8333.042,2.986881
8338.827,3.06995
8344.612,3.172194
8350.398,3.260421
8356.184,3.351865
8361.969,3.443859
8367.755,3.539127
8373.54,3.629957
8379.325,3.717919
8385.111,3.787746
8390.896,3.852263
8396.683,3.9161
8402.468,3.953979
8408.253,3.973865
8414.039,3.994891
8419.824,3.998859
8425.609,4.031855
8431.396,4.09467
8437.181,4.189828
8442.966,4.299414
8448.752,4.420458
8454.537,4.542917
8460.322,4.661007
8466.108,4.740141
8471.894,4.84478
8477.679,4.955088
8483.465,5.050305
8489.25,5.14594
8495.035,5.237823
8500.821,5.3171
8506.606,5.372132
8512.392,5.400684
8518.178,5.436399
8523.963,5.491759
8529.748,5.537412
8535.534,5.555334
8541.319,5.544629
8547.105,5.475596
8552.891,5.39415
8558.676,5.311615
8564.462,5.253901
8570.247,5.321665
8576.032,5.446507
8581.818,5.585986
8587.604,5.74141
8593.389,5.898824
8599.175,6.082928
8604.96,6.242106
8610.745,6.412668
8616.531,6.56292
8622.316,6.720366
8628.102,6.850024
8633.888,6.968574
8639.673,7.071141
8645.458,7.183466
8651.244,7.257239
8657.029,7.334651
8662.814,7.417395
8668.601,7.470163
8674.386,7.546245
8680.172,7.593981
8685.957,7.659167
8691.742,7.738314
8697.528,7.814489
8703.313,7.906291
8709.099,7.97497
8714.885,8.059807
8720.67,8.146504
8726.455,8.220402
8732.241,8.305361
8738.026,8.383382
8743.812,8.459277
8749.598,8.530485
8755.383,8.593878
8761.168,8.657763
8766.954,8.709314
8772.739,8.765994
8778.524,8.798985
8784.311,8.86135
8790.096,8.889595
8795.881,8.913837
8801.667,8.955585
8807.452,8.978718
8813.237,9.018917
8819.023,9.026976
8824.809,9.059488
8830.595,9.071243
8836.38,9.083424
8842.165,9.11094
8847.951,9.085131
8853.736,9.11029
8859.521,9.120061
8865.308,9.151012
8871.093,9.148245
8876.878,9.145313
8882.664,9.169412
8888.449,9.16055
8894.234,9.168772
8900.021,9.157897
8905.806,9.14907
8911.591,9.158308
8917.377,9.153463
8923.162,9.167883
8928.947,9.154311
8934.733,9.171584
8940.519,9.17096
8946.304,9.162676
8952.09,9.157584
8957.875,9.157183
8963.661,9.152613
8969.446,9.161861
8975.231,9.162508
8981.018,9.189181
8986.803,9.18066
8992.588,9.202834
8998.374,9.202025
9004.159,9.219571
9009.944,9.21058
9015.73,9.229558
9021.516,9.222512
9027.301,9.239356
9033.087,9.23516
9038.872,9.236212
9044.657,9.245682
9050.443,9.252364
9056.229,9.243124
9062.014,9.255866
9067.8,9.275263
9073.585,9.256177
9079.37,9.26193
9085.156,9.291276
9090.941,9.276664
9096.727,9.284525
9102.513,9.280966
9108.298,9.29062
9114.084,9.283382
9119.869,9.277571
9125.654,9.281685
9131.44,9.281949
9137.226,9.270995
9143.011,9.268393
9148.797,9.262463
9154.582,9.264328
9160.367,9.267727
9166.153,9.26226
9171.938,9.25976
9177.724,9.276462
9183.51,9.249261
9189.295,9.252529
9195.08,9.22583
9200.866,9.232869
9206.651,9.224866
9212.437,9.224384
9218.223,9.212076
9224.008,9.218363
9229.793,9.207257
9235.579,9.206197
9241.364,9.217625
9247.15,9.202274
9252.936,9.185357
9258.721,9.199897
9264.507,9.164501
9270.292,9.177101
9276.077,9.167894
9281.863,9.157643
9287.648,9.158792
9293.434,9.154498
9299.22,9.1614
9305.005,9.169875
9310.79,9.161753
9316.576,9.190163
9322.361,9.178688
9328.146,9.179034
9333.933,9.181546
9339.718,9.175803
9345.503,9.169773
9351.289,9.158937
9357.074,9.160598
9362.859,9.143552
9368.646,9.136611
9374.431,9.127108
9380.217,9.112543
9386.002,9.119585
9391.787,9.081538
9397.573,9.081212
9403.358,9.077737
9409.144,9.066973
9414.93,9.067013
9420.715,9.041761
9426.5,9.054787
9432.286,9.023416
9438.071,9.001707
9443.856,8.998617
9449.643,8.994196
9455.428,8.968877
9461.213,8.926233
9466.999,8.927534
9472.784,8.921967
9478.569,8.909943
9484.355,8.925209
9490.141,8.89
9495.926,8.886322
9501.712,8.892756
9507.497,8.878782
9513.282,8.869258
9519.068,8.869003
9524.854,8.82903
9530.64,8.836825
9536.425,8.830955
9542.21,8.805223
9547.996,8.814058
9553.781,8.785397
9559.566,8.763172
9565.353,8.757178
9571.138,8.76697
9576.923,8.749934
9582.709,8.721649
9588.494,8.74572
9594.279,8.710032
9600.065,8.717079
9605.851,8.748582
9611.636,8.750433
9617.422,8.761006
9623.207,8.796275
9628.992,8.831734
9634.778,8.823677
9640.563,8.836332
9646.349,8.850108
9652.135,8.8894
9657.92,8.908724
9663.706,8.928601
9669.491,8.968108
9675.276,8.99159
9681.063,9.001668
9686.848,9.027635
9692.633,9.05471
9698.419,9.080609
9704.204,9.091104
9709.989,9.143968
9715.775,9.161414
9721.561,9.147835
9727.346,9.207248
9733.132,9.217438
9738.917,9.211082
9744.702,9.245893
9750.488,9.279015
9756.273,9.284596
9762.059,9.299769
9767.845,9.322181
9773.63,9.323187
9779.415,9.329242
9785.201,9.353318
9790.986,9.339369
9796.771,9.313445
9802.558,9.328129
9808.343,9.351478
9814.129,9.343864
9819.914,9.332891
9825.699,9.366187
9831.485,9.35113
9837.271,9.364629
9843.056,9.384283
9848.842,9.411133
9854.627,9.433258
9860.412,9.487089
9866.198,9.469481
9871.983,9.495622
9877.769,9.528534
9883.555,9.54091
9889.34,9.576187
9895.125,9.578478
9900.911,9.641327
9906.696,9.650491
9912.481,9.679043
9918.268,9.691085
9924.053,9.706233
9929.838,9.72087
9935.624,9.751989
9941.409,9.768982
9947.195,9.796576
9952.98,9.779976
9958.766,9.83641
9964.552,9.843659
9970.337,9.862272
9976.122,9.831001
9981.908,9.881526
9987.693,9.877739
9993.479,9.88071
9999.265,9.881259
10005.05,9.907997
10010.83,9.913048
10016.62,9.923407
10022.41,9.954004
10028.19,9.948905
10033.98,9.98387
10039.76,9.968486
10045.55,9.959454
10051.33,10.01183
10057.12,10.00053
10062.9,10.03168
10068.69,10.03036
10074.48,10.03603
10080.26,10.06339
10086.05,10.05394
10091.83,10.08735
10097.62,10.05195
10103.4,10.06642
10109.19,10.05531
10114.97,10.1022
10120.76,10.08351
10126.54,10.1106
10132.33,10.1253
10138.12,10.1548
10143.9,10.105
10149.69,10.10623
10155.47,10.09808
10161.26,10.11096
10167.04,10.11374
10172.83,10.13514
10178.61,10.14343
10184.4,10.13696
10190.19,10.14359
10195.97,10.14621
10201.76,10.14371
10207.54,10.14035
10213.33,10.16643
10219.11,10.14184
10224.9,10.17127
10230.68,10.14857
10236.47,10.1255
10242.25,10.13668
10248.04,10.18732
10253.83,10.17857
10259.61,10.13925
10265.4,10.15036
10271.18,10.1314
10276.97,10.11298
10282.75,10.14663
10288.54,10.16071
10294.32,10.13231
10300.11,10.15428
10305.9,10.14464
10311.68,10.1768
10317.47,10.11689
10323.25,10.17913
10329.04,10.12386
10334.82,10.10322
10340.61,10.13172
10346.39,10.12155
10352.18,10.13565
10357.96,10.11702
10363.75,10.16302
10369.54,10.08412
10375.32,10.1158
10381.11,10.08997
10386.89,10.09251
10392.68,10.12864
10398.46,10.0827
10404.25,10.12143
10410.03,10.06065
10415.82,10.09324
10421.61,10.1176
10427.39,10.05056
10433.18,10.02507
10438.96,10.038
10444.75,10.02052
10450.53,10.00795
10456.32,10.06248
10462.1,10.03522
10467.89,10.02846
10473.67,9.98012
10479.46,9.973244
10485.25,9.984335
10491.03,9.94733
10496.82,9.863109
10502.6,9.880877
10508.39,9.891293
10514.17,9.848144
10519.96,9.823668
10525.74,9.771397
10531.53,9.728212
10537.32,9.733971
10543.1,9.737829
10548.89,9.672137
10554.67,9.650372
10560.46,9.609715
10566.24,9.542855
10572.03,9.548986
10577.81,9.423326
10583.6,9.354889
10589.38,9.344749
10595.17,9.352243
10600.96,9.243763
10606.74,9.173194
10612.53,9.161267
10618.31,8.995397
10624.1,9.022193
10629.88,8.895771
10635.67,8.799126
10641.45,8.716653
10647.24,8.672829
10653.03,8.579079
10658.81,8.475763
10664.6,8.425908
10670.38,8.303282
10676.17,8.27479
10681.95,8.238223
10687.74,8.118974
10693.52,8.098317
10699.31,8.079554
10705.09,8.020628
10710.88,8.037177
10716.67,7.999079
10722.45,8.006663
10728.24,7.979064
10734.02,8.000453
10739.81,7.993922
10745.59,7.997013
10751.38,8.083035
10757.16,8.090164
10762.95,8.149047
10768.74,8.143349
10774.52,8.172899
10780.31,8.24309
10786.09,8.291839
10791.88,8.417716
10797.66,8.406535
10803.45,8.479675
10809.23,8.483489
10815.02,8.55461
10820.8,8.577311
10826.59,8.649246
10832.38,8.718525
10838.16,8.82158
10843.95,8.857674
10849.73,8.924219
10855.52,8.928967
10861.3,9.025953
10867.09,9.080558
10872.87,9.133051
10878.66,9.164581
10884.45,9.197591
10890.23,9.215732
10896.02,9.325667
10901.8,9.4151
10907.59,9.432059
10913.37,9.501975
10919.16,9.498944
10924.94,9.596336
10930.73,9.578104
10936.51,9.663857
10942.3,9.646829
10948.09,9.674356
10953.87,9.706489
10959.66,9.830544
10965.44,9.840246
10971.23,9.834959
10977.01,9.917503
10982.8,9.94047
10988.58,10.03393
10994.37,10.00651
11000.16,10.04222
11005.94,10.0522
11011.73,10.06102
11017.51,10.132
11023.3,10.2397
11029.08,10.14057
11034.87,10.13062
11040.65,10.26952
11046.44,10.16749
11052.22,10.30658
11058.01,10.27239
11063.79,10.23168
11069.58,10.28156
11075.37,10.30496
11081.15,10.34871
11086.94,10.3596
11092.72,10.33908
11098.51,10.4251
11104.29,10.41894
11110.08,10.38932
11115.87,10.38699
11121.65,10.41805
11127.44,10.38912
11133.22,10.43935
11139.01,10.40374
11144.79,10.47583
11150.58,10.45028
11156.36,10.44242
11162.15,10.4561
11167.93,10.49569
11173.72,10.55856
11179.5,10.52509
11185.29,10.47789
11191.08,10.51628
11196.86,10.55879
11202.65,10.60916
11208.43,10.61306
11214.22,10.6671
11220.0,10.67968
11225.79,10.7186
11231.58,10.75892
11237.36,10.75786
11243.15,10.65282
11248.93,10.6884
11254.72,10.77163
11260.5,10.81624
11266.29,10.75453
11272.07,10.83925
11277.86,10.69847
11283.64,10.76782
11289.43,10.64575
11295.21,10.84368
11301.0,10.76949
11306.79,10.81235
11312.57,10.85161
11318.36,10.82457
11324.14,10.87699
11329.93,10.91793
11335.71,10.91819
11341.5,10.87803
11347.28,10.91094
11353.07,10.86608
11358.86,10.77748
11364.64,10.95915
11370.43,10.95406
11376.21,10.92129
11382.0,10.89429
11387.78,11.00679
11393.57,10.91445
11399.35,10.90197
11405.14,10.92652
11410.92,10.96304
11416.71,10.88691
11422.5,11.03893
11428.28,10.91851
11434.07,11.02985
11439.85,11.05523
11445.64,10.99163
11451.42,11.06212
11457.21,11.07739
11462.99,11.0126
11468.78,11.05257
11474.57,11.06206
11480.35,11.03914
11486.14,11.04584
11491.92,11.07717
11497.71,11.0462
11503.49,11.01846
11509.28,11.10228
11515.06,11.05276
11520.85,11.13721
11526.63,11.12494
11532.42,11.18797
11538.21,11.12832
11543.99,11.17275
11549.78,11.12911
11555.56,11.16084
11561.35,11.07832
11567.13,11.20668
11572.92,11.02045
11578.7,11.15071
11584.49,11.0164
11590.28,11.28863
11596.06,11.09235
11601.85,11.1475
11607.63,11.23192
11613.42,11.10921
11619.2,11.1935
11624.99,11.22886
11630.77,11.15313
11636.56,11.23632
11642.34,11.22147
11648.13,11.22749
11653.92,11.27639
11659.7,11.13239
11665.49,11.16988
11671.27,11.24752
11677.06,11.15946
11682.84,11.26091
11688.63,11.27207
11694.41,11.10046
11700.2,11.19512
11705.99,11.28989
11711.77,11.19347
11717.56,11.22627
11723.34,11.14259
11729.13,11.16896
11734.91,11.38487
11740.7,11.21002
11746.48,11.18119
11752.27,11.10863
11758.05,11.30666
11763.84,11.1686
11769.63,11.28614
11775.41,11.2147
11781.2,11.24338
11786.98,11.26349
11792.77,11.23009
11798.55,11.27491
11804.34,11.12944
11810.12,11.24405
11815.91,11.25974
11821.7,11.34941
11827.48,11.29757
11833.27,11.17985
11839.05,11.30097
11844.84,11.29903
11850.62,11.24901
11856.41,11.27281
11862.19,11.20455
11867.98,11.18831
11873.76,11.20995
11879.55,11.25844
11885.34,11.14135
11891.12,11.24463
11896.91,11.32181
11902.69,11.32605
11908.48,11.06066
11914.26,11.27947
11920.05,11.31467
11925.83,11.23397
11931.62,11.45555
11937.41,11.24075
11943.19,11.27808
11948.98,11.22702
11954.76,11.26854
11960.55,11.26595
11966.33,11.18731
11972.12,11.28397
11977.9,11.23191
11983.69,11.17542
11989.47,11.08039
11995.26,11.22221
11999.12,11.16581