File: Data/NIR/H0002LDPE_3.csv
Wavenumber,Intensity
3999.706,2.902155
4005.491,2.903295
4011.277,2.906766
4017.062,2.915553
4022.848,2.913939
4028.633,2.922592
4034.419,2.923918
4040.204,2.923735
4045.99,2.9245
4051.775,2.930077
4057.561,2.932778
4063.346,2.941909
4069.132,2.938318
4074.917,2.946061
4080.703,2.946637
4086.488,2.952598
4092.274,2.951428
4098.059,2.952583
4103.845,2.956496
4109.63,2.951559
4115.416,2.961035
4121.201,2.961378
4126.987,2.959067
4132.772,2.962499
4138.558,2.963791
4144.343,2.96614
4150.129,2.963393
4155.914,2.972584
4161.7,2.971775
4167.485,2.973187
4173.271,2.981735
4179.056,2.983945
4184.842,2.991811
4190.627,2.998653
4196.413,3.001472
4202.198,3.015136
4207.983,3.01684
4213.769,3.029318
4219.555,3.034359
4225.34,3.039154
4231.125,3.042873
4236.911,3.048049
4242.697,3.053359
4248.482,3.056564
4254.268,3.058025
4260.053,3.061346
4265.838,3.070129
4271.624,3.069338
4277.41,3.070776
4283.195,3.074152
4288.98,3.078508
4294.766,3.080047
4300.552,3.081369
4306.337,3.078256
4312.123,3.082347
4317.908,3.082224
4323.693,3.07946
4329.479,3.079548
4335.265,3.083914
4341.05,3.085488
4346.835,3.08828
4352.621,3.086888
4358.407,3.088712
4364.192,3.089025
4369.978,3.085997
4375.763,3.089497
4381.548,3.091466
4387.334,3.089864
4393.12,3.094076
4398.905,3.091734
4404.69,3.096009
4410.476,3.097563
4416.262,3.109723
4422.047,3.118071
4427.833,3.133068
4433.618,3.144822
4439.403,3.163398
4445.189,3.18252
4450.975,3.209116
4456.76,3.234396
4462.545,3.25958
4468.331,3.281004
4474.116,3.301784
4479.902,3.332997
4485.688,3.355832
4491.473,3.37897
4497.258,3.40776
4503.044,3.432123
4508.83,3.459266
4514.615,3.490395
4520.4,3.520527
4526.186,3.551207
4531.971,3.586102
4537.757,3.616422
4543.542,3.658072
4549.328,3.69505
4555.113,3.729539
4560.899,3.7712
4566.685,3.805924
4572.47,3.83258
4578.255,3.862114
4584.041,3.885376
4589.826,3.908073
4595.612,3.925532
4601.397,3.945179
4607.183,3.964186
4612.968,3.972967
4618.754,3.987108
4624.539,4.009161
4630.325,4.017981
4636.11,4.030152
4641.896,4.03253
4647.681,4.035988
4653.467,4.02613
4659.252,4.007198
4665.038,3.982396
4670.823,3.992394
4676.609,4.033502
4682.394,4.069906
4688.18,4.087252
4693.965,4.095177
4699.751,4.10458
4705.536,4.105454
4711.322,4.1035
4717.107,4.090232
4722.893,4.076123
4728.678,4.059318
4734.464,4.049914
4740.249,4.045487
4746.035,4.037852
4751.82,4.029496
4757.605,4.014141
4763.391,3.999599
4769.177,3.977263
4774.962,3.956199
4780.748,3.940814
4786.533,3.934611
4792.319,3.923762
4798.104,3.918346
4803.89,3.90117
4809.675,3.884063
4815.46,3.86302
4821.246,3.837938
4827.032,3.823758
4832.817,3.80417
4838.603,3.786104
4844.388,3.761216
4850.174,3.736515
4855.959,3.712616
4861.745,3.692719
4867.53,3.677196
4873.315,3.682921
4879.101,3.688924
4884.887,3.694324
4890.672,3.704686
4896.458,3.713341
4902.243,3.719804
4908.028,3.723938
4913.814,3.726056
4919.6,3.726495
4925.385,3.726532
4931.17,3.723149
4936.956,3.721197
4942.742,3.711565
4948.527,3.69784
4954.313,3.662003
4960.098,3.611919
4965.883,3.5967
4971.669,3.609726
4977.455,3.620415
4983.24,3.635983
4989.025,3.657052
4994.811,3.678684
5000.597,3.705599
5006.382,3.72739
5012.167,3.731198
5017.953,3.734298
5023.738,3.742212
5029.524,3.755759
5035.31,3.761038
5041.095,3.763895
5046.88,3.76537
5052.666,3.75862
5058.451,3.75186
5064.237,3.741769
5070.022,3.744292
5075.808,3.744579
5081.593,3.736722
5087.379,3.735087
5093.165,3.731383
5098.95,3.728923
5104.735,3.731838
5110.521,3.737668
5116.307,3.745256
5122.092,3.753314
5127.877,3.758792
5133.663,3.760928
5139.448,3.757814
5145.234,3.751625
5151.02,3.74175
5156.805,3.735774
5162.59,3.731486
5168.376,3.736303
5174.161,3.731606
5179.947,3.72736
5185.732,3.727471
5191.518,3.724995
5197.303,3.734494
5203.089,3.737737
5208.874,3.731541
5214.66,3.730224
5220.445,3.732635
5226.231,3.738548
5232.016,3.742028
5237.802,3.744996
5243.587,3.75617
5249.373,3.755383
5255.158,3.755238
5260.944,3.764329
5266.729,3.763013
5272.515,3.753577
5278.3,3.754119
5284.086,3.757315
5289.871,3.762723
5295.657,3.753948
5301.442,3.744106
5307.228,3.740584
5313.013,3.742195
5318.799,3.760358
5324.584,3.780175
5330.37,3.783882
5336.155,3.777923
5341.94,3.757537
5347.726,3.730636
5353.512,3.710232
5359.297,3.682446
5365.083,3.662021
5370.868,3.645162
5376.654,3.630767
5382.439,3.621876
5388.225,3.608345
5394.01,3.592553
5399.796,3.572592
5405.581,3.554081
5411.367,3.525718
5417.152,3.492018
5422.938,3.482304
5428.723,3.480963
5434.509,3.46895
5440.294,3.466833
5446.08,3.45486
5451.865,3.447318
5457.65,3.447062
5463.436,3.44518
5469.222,3.433124
5475.007,3.429104
5480.792,3.410443
5486.578,3.40258
5492.363,3.400566
5498.149,3.399488
5503.935,3.40058
5509.72,3.405353
5515.505,3.409329
5521.291,3.414571
5527.077,3.408368
5532.862,3.408439
5538.647,3.408827
5544.433,3.402592
5550.219,3.401819
5556.004,3.401096
5561.79,3.409288
5567.575,3.417626
5573.36,3.431435
5579.146,3.449366
5584.932,3.463813
5590.717,3.463367
5596.502,3.461064
5602.288,3.448115
5608.073,3.431875
5613.859,3.413115
5619.645,3.396998
5625.43,3.380735
5631.215,3.370563
5637.001,3.351894
5642.786,3.336113
5648.572,3.309123
5654.357,3.284721
5660.143,3.275104
5665.929,3.276367
5671.714,3.281188
5677.5,3.288548
5683.285,3.300799
5689.07,3.309375
5694.856,3.323832
5700.642,3.344705
5706.427,3.365318
5712.212,3.37691
5717.998,3.379485
5723.783,3.360442
5729.569,3.322806
5735.354,3.313208
5741.14,3.306178
5746.925,3.290683
5752.711,3.282203
5758.496,3.273172
5764.282,3.271428
5770.067,3.268488
5775.853,3.271487
5781.638,3.271809
5787.424,3.276027
5793.209,3.275021
5798.995,3.273502
5804.78,3.275141
5810.566,3.278908
5816.352,3.286333
5822.137,3.292249
5827.922,3.296037
5833.708,3.308921
5839.493,3.324893
5845.279,3.346505
5851.064,3.380368
5856.85,3.431504
5862.635,3.495326
5868.421,3.587501
5874.206,3.691031
5879.992,3.813458
5885.777,3.933243
5891.563,4.039694
5897.348,4.118275
5903.134,4.189802
5908.919,4.27397
5914.705,4.396871
5920.49,4.546988
5926.276,4.712313
5932.061,4.878798
5937.847,5.02699
5943.632,5.161579
5949.418,5.285775
5955.203,5.404306
5960.989,5.526651
5966.774,5.658752
5972.56,5.784906
5978.345,5.90489
5984.131,6.011124
5989.916,6.115172
5995.702,6.21004
6001.487,6.293998
6007.272,6.386562
6013.058,6.470592
6018.844,6.546375
6024.629,6.624529
6030.415,6.692577
6036.2,6.756572
6041.985,6.810934
6047.771,6.861732
6053.557,6.917752
6059.342,6.959008
6065.128,7.000343
6070.913,7.040647
6076.698,7.07107
6082.484,7.103017
6088.27,7.129888
6094.055,7.152242
6099.841,7.16855
6105.626,7.189447
6111.412,7.210726
6117.197,7.228968
6122.982,7.25276
6128.768,7.292444
6134.554,7.32167
6140.339,7.358358
6146.125,7.392441
6151.91,7.423534
6157.695,7.455675
6163.481,7.49046
6169.267,7.520339
6175.052,7.552805
6180.837,7.575065
6186.623,7.606431
6192.408,7.621019
6198.194,7.647069
6203.979,7.661639
6209.765,7.679011
6215.551,7.696106
6221.336,7.705759
6227.121,7.719591
6232.907,7.737903
6238.692,7.742785
6244.478,7.747327
6250.264,7.75435
6256.049,7.759412
6261.834,7.762793
6267.62,7.773458
6273.405,7.779532
6279.191,7.780964
6284.977,7.785784
6290.762,7.790808
6296.547,7.792453
6302.333,7.798734
6308.118,7.804018
6313.904,7.80158
6319.689,7.797262
6325.475,7.791515
6331.26,7.782607
6337.046,7.769285
6342.831,7.763167
6348.617,7.744609
6354.402,7.723337
6360.188,7.70741
6365.974,7.680337
6371.759,7.647642
6377.544,7.619353
6383.33,7.604839
6389.115,7.597844
6394.901,7.581371
6400.687,7.556692
6406.472,7.5213
6412.257,7.476192
6418.043,7.438578
6423.828,7.413102
6429.614,7.399124
6435.399,7.376825
6441.185,7.335739
6446.97,7.286179
6452.756,7.225022
6458.541,7.146752
6464.327,7.038237
6470.112,6.872588
6475.897,6.691098
6481.684,6.573261
6487.469,6.584463
6493.254,6.642395
6499.04,6.702768
6504.825,6.757641
6510.61,6.806862
6516.396,6.840567
6522.182,6.870277
6527.967,6.894783
6533.753,6.917556
6539.538,6.931444
6545.324,6.949811
6551.109,6.961314
6556.895,6.981043
6562.68,6.9883
6568.466,7.013451
6574.251,7.031609
6580.037,7.054514
6585.822,7.053778
6591.607,7.05945
6597.393,7.064437
6603.179,7.062634
6608.964,7.062285
6614.75,7.056434
6620.535,7.055308
6626.32,7.042264
6632.106,7.031831
6637.892,7.015769
6643.677,7.002404
6649.463,6.988054
6655.248,6.964604
6661.034,6.946871
6666.819,6.917514
6672.604,6.902546
6678.39,6.872729
6684.176,6.845112
6689.961,6.817791
6695.747,6.784904
6701.532,6.750087
6707.317,6.712226
6713.103,6.678763
6718.889,6.636614
6724.674,6.602021
6730.459,6.564506
6736.245,6.527727
6742.03,6.500747
6747.816,6.459607
6753.602,6.426884
6759.387,6.389924
6765.173,6.35945
6770.958,6.313153
6776.743,6.258994
6782.529,6.200959
6788.314,6.138429
6794.1,6.071149
6799.886,6.005555
6805.671,5.931463
6811.457,5.870141
6817.242,5.803637
6823.027,5.734145
6828.813,5.662372
6834.599,5.600086
6840.384,5.559107
6846.169,5.527097
6851.955,5.494738
6857.74,5.462422
6863.526,5.426492
6869.312,5.384287
6875.097,5.340332
6880.882,5.300296
6886.668,5.24426
6892.453,5.194738
6898.239,5.149702
6904.024,5.114908
6909.81,5.08626
6915.596,5.046406
6921.381,5.007344
6927.166,4.948964
6932.952,4.88726
6938.737,4.816912
6944.523,4.753219
6950.309,4.716626
6956.094,4.698905
6961.879,4.699538
6967.665,4.695801
6973.45,4.699577
6979.236,4.686419
6985.021,4.677574
6990.807,4.661459
6996.592,4.637188
7002.378,4.612507
7008.163,4.580529
7013.949,4.551614
7019.734,4.526231
7025.52,4.509276
7031.305,4.52689
7037.091,4.525196
7042.876,4.524579
7048.662,4.483301
7054.447,4.41643
7060.232,4.33637
7066.019,4.334997
7071.804,4.410841
7077.589,4.503941
7083.375,4.594098
7089.16,4.643334
7094.946,4.690622
7100.731,4.741164
7106.517,4.822037
7112.302,4.882936
7118.088,4.957345
7123.873,5.008628
7129.659,5.027438
7135.444,5.010604
7141.229,4.962796
7147.015,4.883282
7152.801,4.75604
7158.586,4.561638
7164.372,4.291379
7170.157,4.113452
7175.942,4.110827
7181.729,4.268213
7187.514,4.42256
7193.299,4.596016
7199.085,4.764718
7204.87,4.925322
7210.655,5.085736
7216.441,5.227563
7222.227,5.376131
7228.012,5.537568
7233.798,5.690051
7239.583,5.816479
7245.369,5.949639
7251.154,6.083628
7256.939,6.217934
7262.725,6.34937
7268.511,6.481853
7274.296,6.609488
7280.082,6.739829
7285.867,6.870336
7291.652,6.981652
7297.438,7.110588
7303.224,7.217304
7309.009,7.34797
7314.794,7.456196
7320.58,7.556
7326.365,7.651133
7332.151,7.718063
7337.937,7.776922
7343.722,7.83248
7349.508,7.879605
7355.293,7.94665
7361.079,7.987828
7366.864,8.060819
7372.649,8.110527
7378.435,8.179149
7384.221,8.233061
7390.006,8.276528
7395.792,8.30447
7401.577,8.337875
7407.362,8.367353
7413.148,8.386998
7418.934,8.402526
7424.719,8.423521
7430.504,8.434262
7436.29,8.44117
7442.075,8.44719
7447.861,8.47067
7453.646,8.471264
7459.432,8.478313
7465.218,8.489184
7471.003,8.49052
7476.788,8.492487
7482.574,8.49954
7488.359,8.498608
7494.145,8.496948
7499.931,8.484745
7505.716,8.497861
7511.501,8.492221
7517.287,8.487136
7523.072,8.489031
7528.858,8.478437
7534.644,8.473789
7540.429,8.461269
7546.214,8.457525
7552.0,8.451125
7557.785,8.444093
7563.571,8.431413
7569.356,8.420586
7575.142,8.410219
7580.927,8.402618
7586.713,8.403009
7592.498,8.389379
7598.284,8.36281
7604.069,8.363338
7609.854,8.343938
7615.641,8.33169
7621.426,8.308149
7627.211,8.293413
7632.997,8.271119
7638.782,8.247131
7644.568,8.230931
7650.354,8.221986
7656.139,8.199139
7661.924,8.190291
7667.71,8.169508
7673.495,8.14747
7679.281,8.134983
7685.066,8.132245
7690.852,8.12536
7696.637,8.114507
7702.423,8.093803
7708.208,8.083342
7713.994,8.079394
7719.779,8.054153
7725.564,8.046497
7731.35,8.026826
7737.136,8.026858
7742.921,8.009533
7748.707,8.000953
7754.492,7.976431
7760.277,7.962378
7766.063,7.946096
7771.849,7.938195
7777.634,7.922881
7783.42,7.918134
7789.205,7.897824
7794.991,7.888963
7800.776,7.876956
7806.562,7.8592
7812.347,7.849062
7818.133,7.835222
7823.918,7.813841
7829.704,7.789429
7835.489,7.7815
7841.274,7.769863
7847.06,7.740385
7852.846,7.716256
7858.631,7.685884
7864.417,7.65512
7870.202,7.639702
7875.987,7.600588
7881.773,7.571482
7887.559,7.553605
7893.344,7.520395
7899.13,7.499322
7904.915,7.449141
7910.7,7.409885
7916.486,7.375279
7922.271,7.338547
7928.057,7.302006
7933.843,7.253196
7939.628,7.215074
7945.414,7.171092
7951.199,7.128195
7956.984,7.078929
7962.77,7.021619
7968.556,6.987343
7974.341,6.922736
7980.126,6.873137
7985.912,6.815428
7991.697,6.761002
7997.483,6.709129
8003.269,6.635104
8009.054,6.585205
8014.839,6.514855
8020.625,6.445795
8026.41,6.389851
8032.196,6.311139
8037.981,6.243104
8043.767,6.180085
8049.553,6.097861
8055.338,6.013324
8061.124,5.93891
8066.909,5.859702
8072.694,5.785053
8078.48,5.694894
8084.266,5.617081
8090.051,5.519127
8095.836,5.445006
8101.622,5.352426
8107.407,5.253071
8113.192,5.166368
8118.979,5.061041
8124.764,4.977357
8130.55,4.865962
8136.335,4.774776
8142.12,4.670593
8147.906,4.574118
8153.691,4.479457
8159.477,4.392865
8165.263,4.29271
8171.048,4.206046
8176.833,4.116338
8182.619,4.03813
8188.404,3.982188
8194.189,3.923627
8199.976,3.871624
8205.761,3.846076
8211.546,3.817136
8217.332,3.802215
8223.117,3.793281
8228.902,3.789285
8234.688,3.799279
8240.474,3.806112
8246.259,3.800846
8252.045,3.821641
8257.83,3.831851
8263.616,3.849063
8269.401,3.872754
8275.187,3.916773
8280.973,3.947689
8286.758,4.001539
8292.543,4.063588
8298.329,4.120983
8304.114,4.180374
8309.899,4.228796
8315.686,4.290123
8321.471,4.341332
8327.256,4.407753
8333.042,4.464001
8338.827,4.532103
8344.612,4.603673
8350.398,4.678858
8356.184,4.75495
8361.969,4.819217
8367.755,4.905778
8373.54,4.966282
8379.325,5.032681
8385.111,5.109819
8390.896,5.16551
8396.683,5.191956
8402.468,5.219484
8408.253,5.245
8414.039,5.244078
8419.824,5.278421
8425.609,5.298237
8431.396,5.346407
8437.181,5.419048
8442.966,5.510515
8448.752,5.601504
8454.537,5.709265
8460.322,5.786281
8466.108,5.862668
8471.894,5.933115
8477.679,6.017396
8483.465,6.112505
8489.25,6.183533
8495.035,6.255027
8500.821,6.30648
8506.606,6.356648
8512.392,6.383937
8518.178,6.425349
8523.963,6.474361
8529.748,6.496634
8535.534,6.507164
8541.319,6.488656
8547.105,6.451145
8552.891,6.380963
8558.676,6.29413
8564.462,6.264614
8570.247,6.321348
8576.032,6.422632
8581.818,6.533028
8587.604,6.647528
8593.389,6.797768
8599.175,6.927396
8604.96,7.052577
8610.745,7.208767
8616.531,7.32833
8622.316,7.464758
8628.102,7.557993
8633.888,7.669569
8639.673,7.740431
8645.458,7.826539
8651.244,7.893731
8657.029,7.948615
8662.814,8.024961
8668.601,8.080045
8674.386,8.131216
8680.172,8.182467
8685.957,8.224479
8691.742,8.282037
8697.528,8.357014
8703.313,8.410284
8709.099,8.499985
8714.885,8.570323
8720.67,8.626245
8726.455,8.685525
8732.241,8.772552
8738.026,8.828035
8743.812,8.901312
8749.598,8.942772
8755.383,9.02076
8761.168,9.06214
8766.954,9.100306
8772.739,9.134231
8778.524,9.194274
8784.311,9.212813
8790.096,9.264384
8795.881,9.280867
8801.667,9.299932
8807.452,9.338986
8813.237,9.354145
8819.023,9.361949
8824.809,9.392692
8830.595,9.402774
8836.38,9.413018
8842.165,9.415462
8847.951,9.440779
8853.736,9.435251
8859.521,9.43755
8865.308,9.470774
8871.093,9.478208
8876.878,9.461003
8882.664,9.466505
8888.449,9.484381
8894.234,9.482256
8900.021,9.501611
8905.806,9.47592
8911.591,9.49118
8917.377,9.493452
8923.162,9.477338
8928.947,9.496906
8934.733,9.46907
8940.519,9.475382
8946.304,9.476019
8952.09,9.494046
8957.875,9.468554
8963.661,9.484647
8969.446,9.497058
8975.231,9.486517
8981.018,9.513444
8986.803,9.493084
8992.588,9.498544
8998.374,9.49712
9004.159,9.514915
9009.944,9.53562
9015.73,9.52397
9021.516,9.532505
9027.301,9.543134
9033.087,9.555947
9038.872,9.544054
9044.657,9.558398
9050.443,9.556446
9056.229,9.552882
9062.014,9.577276
9067.8,9.568151
9073.585,9.573308
9079.37,9.577381
9085.156,9.573613
9090.941,9.581298
9096.727,9.585127
9102.513,9.591043
9108.298,9.581955
9114.084,9.58185
9119.869,9.569319
9125.654,9.573462
9131.44,9.565045
9137.226,9.578257
9143.011,9.550483
9148.797,9.579181
9154.582,9.603842
9160.367,9.578754
9166.153,9.56215
9171.938,9.563868
9177.724,9.574972
9183.51,9.551538
9189.295,9.542233
9195.08,9.545545
9200.866,9.531657
9206.651,9.548922
9212.437,9.536066
9218.223,9.504531
9224.008,9.521163
9229.793,9.521329
9235.579,9.50665
9241.364,9.507363
9247.15,9.504665
9252.936,9.516972
9258.721,9.500935
9264.507,9.502778
9270.292,9.501576
9276.077,9.486759
9281.863,9.513236
9287.648,9.477042
9293.434,9.493866
9299.22,9.488962
9305.005,9.502326
9310.79,9.473885
9316.576,9.490296
9322.361,9.474371
9328.146,9.478947
9333.933,9.475323
9339.718,9.480204
9345.503,9.48713
9351.289,9.493915
9357.074,9.470195
9362.859,9.474548
9368.646,9.478411
9374.431,9.444518
9380.217,9.43384
9386.002,9.434628
9391.787,9.424279
9397.573,9.431722
9403.358,9.403615
9409.144,9.409671
9414.93,9.38501
9420.715,9.398745
9426.5,9.371355
9432.286,9.359358
9438.071,9.356276
9443.856,9.34089
9449.643,9.302969
9455.428,9.311514
9461.213,9.30008
9466.999,9.303536
9472.784,9.261987
9478.569,9.273313
9484.355,9.277131
9490.141,9.260567
9495.926,9.25902
9501.712,9.246949
9507.497,9.260459
9513.282,9.249299
9519.068,9.231917
9524.854,9.221765
9530.64,9.214142
9536.425,9.205711
9542.21,9.188951
9547.996,9.177754
9553.781,9.172953
9559.566,9.149053
9565.353,9.147462
9571.138,9.151999
9576.923,9.139744
9582.709,9.115543
9588.494,9.125878
9594.279,9.122359
9600.065,9.139649
9605.851,9.132
9611.636,9.149568
9617.422,9.187716
9623.207,9.165024
9628.992,9.182986
9634.778,9.215258
9640.563,9.222012
9646.349,9.241797
9652.135,9.258864
9657.92,9.31052
9663.706,9.299879
9669.491,9.328309
9675.276,9.363176
9681.063,9.344759
9686.848,9.39275
9692.633,9.393888
9698.419,9.410331
9704.204,9.437498
9709.989,9.462322
9715.775,9.504377
9721.561,9.493414
9727.346,9.509102
9733.132,9.536615
9738.917,9.567685
9744.702,9.584604
9750.488,9.624796
9756.273,9.622272
9762.059,9.630672
9767.845,9.608176
9773.63,9.612866
9779.415,9.654484
9785.201,9.636171
9790.986,9.68541
9796.771,9.681428
9802.558,9.63827
9808.343,9.657414
9814.129,9.649838
9819.914,9.662821
9825.699,9.643665
9831.485,9.680582
9837.271,9.703053
9843.056,9.723938
9848.842,9.711054
9854.627,9.748308
9860.412,9.763348
9866.198,9.79141
9871.983,9.793263
9877.769,9.851488
9883.555,9.862649
9889.34,9.88029
9895.125,9.887909
9900.911,9.886664
9906.696,9.940047
9912.481,9.939365
9918.268,9.952207
9924.053,9.987298
9929.838,9.98349
9935.624,9.988196
9941.409,10.06843
9947.195,10.04557
9952.98,10.05374
9958.766,10.09299
9964.552,10.08937
9970.337,10.10475
9976.122,10.09353
9981.908,10.12906
9987.693,10.15405
9993.479,10.16306
9999.265,10.17031
10005.05,10.13739
10010.83,10.17085
10016.62,10.19637
10022.41,10.19607
10028.19,10.18188
10033.98,10.20397
10039.76,10.22468
10045.55,10.26483
10051.33,10.26394
10057.12,10.28557
10062.9,10.26266
10068.69,10.28671
10074.48,10.305
10080.26,10.29394
10086.05,10.34089
10091.83,10.31037
10097.62,10.32198
10103.4,10.32494
10109.19,10.32901
10114.97,10.31956
10120.76,10.31827
10126.54,10.35985
10132.33,10.35659
10138.12,10.38323
10143.9,10.3658
10149.69,10.37057
10155.47,10.37377
10161.26,10.39721
10167.04,10.39515
10172.83,10.39085
10178.61,10.3456
10184.4,10.38756
10190.19,10.37635
10195.97,10.35811
10201.76,10.40919
10207.54,10.43703
10213.33,10.40494
10219.11,10.39315
10224.9,10.416
10230.68,10.39959
10236.47,10.38574
10242.25,10.37341
10248.04,10.38713
10253.83,10.41353
10259.61,10.4288
10265.4,10.40912
10271.18,10.40197
10276.97,10.4451
10282.75,10.38606
10288.54,10.39055
10294.32,10.39345
10300.11,10.42543
10305.9,10.41018
10311.68,10.39283
10317.47,10.38104
10323.25,10.41299
10329.04,10.38383
10334.82,10.42878
10340.61,10.40056
10346.39,10.40647
10352.18,10.37354
10357.96,10.40531
10363.75,10.38002
10369.54,10.36412
10375.32,10.3729
10381.11,10.40041
10386.89,10.3596
10392.68,10.35793
10398.46,10.36599
10404.25,10.39097
10410.03,10.35747
10415.82,10.35537
10421.61,10.3789
10427.39,10.3743
10433.18,10.2998
10438.96,10.31579
10444.75,10.38748
10450.53,10.31262
10456.32,10.31618
10462.1,10.3295
10467.89,10.29246
10473.67,10.28964
10479.46,10.27446
10485.25,10.28289
10491.03,10.25567
10496.82,10.2063
10502.6,10.22979
10508.39,10.20924
10514.17,10.20047
10519.96,10.20042
10525.74,10.15162
10531.53,10.12211
10537.32,10.1248
10543.1,10.10649
10548.89,10.06611
10554.67,10.02742
10560.46,9.98379
10566.24,9.982623
10572.03,9.931001
10577.81,9.812003
10583.6,9.828707
10589.38,9.794276
10595.17,9.736693
10600.96,9.67499
10606.74,9.68145
10612.53,9.527134
10618.31,9.50332
10624.1,9.439868
10629.88,9.412731
10635.67,9.258615
10641.45,9.262899
10647.24,9.155607
10653.03,9.129921
10658.81,9.039631
10664.6,8.965776
10670.38,8.897688
10676.17,8.852363
10681.95,8.830369
10687.74,8.744761
10693.52,8.745989
10699.31,8.721364
10705.09,8.704468
10710.88,8.643197
10716.67,8.638971
10722.45,8.661404
10728.24,8.631102
10734.02,8.654869
10739.81,8.679341
10745.59,8.626724
10751.38,8.700562
10757.16,8.759123
10762.95,8.733325
10768.74,8.777528
10774.52,8.812202
10780.31,8.871656
10786.09,8.901188
10791.88,8.884488
10797.66,8.967186
10803.45,9.002643
10809.23,9.133623
10815.02,9.111556
10820.8,9.146376
10826.59,9.217589
10832.38,9.229783
10838.16,9.338606
10843.95,9.41363
10849.73,9.429161
10855.52,9.478665
10861.3,9.567757
10867.09,9.580852
10872.87,9.647899
10878.66,9.769998
10884.45,9.757432
10890.23,9.737274
10896.02,9.79391
10901.8,9.876999
10907.59,9.919618
10913.37,9.981147
10919.16,9.93376
10924.94,9.998449
10930.73,10.00919
10936.51,10.09331
10942.3,10.09487
10948.09,10.09033
10953.87,10.20372
10959.66,10.27701
10965.44,10.30482
10971.23,10.3548
10977.01,10.2743
10982.8,10.38335
10988.58,10.396
10994.37,10.42061
11000.16,10.41286
11005.94,10.4557
11011.73,10.48364
11017.51,10.51593
11023.3,10.5297
11029.08,10.57255
11034.87,10.50124
11040.65,10.59226
11046.44,10.60711
11052.22,10.68319
11058.01,10.6704
11063.79,10.72289
11069.58,10.70608
11075.37,10.73026
11081.15,10.71089
11086.94,10.7756
11092.72,10.70348
11098.51,10.72102
11104.29,10.79254
11110.08,10.70823
11115.87,10.76002
11121.65,10.74429
11127.44,10.81185
11133.22,10.69311
11139.01,10.76645
11144.79,10.82412
11150.58,10.81779
11156.36,10.86601
11162.15,10.85698
11167.93,10.83677
11173.72,10.86479
11179.5,10.87123
11185.29,10.92552
11191.08,10.95584
11196.86,10.94631
11202.65,10.90455
11208.43,11.02551
11214.22,10.97466
11220.0,11.09293
11225.79,11.01403
11231.58,11.09849
11237.36,11.09534
11243.15,10.97516
11248.93,11.08599
11254.72,11.19691
11260.5,11.18873
11266.29,11.08439
11272.07,11.11477
11277.86,11.12717
11283.64,11.23701
11289.43,11.15443
11295.21,11.0908
11301.0,11.19253
11306.79,11.182
11312.57,11.26617
11318.36,11.17821
11324.14,11.24068
11329.93,11.22487
11335.71,11.25244
11341.5,11.28188
11347.28,11.24816
11353.07,11.37333
11358.86,11.30739
11364.64,11.19353
11370.43,11.24558
11376.21,11.22778
11382.0,11.33766
11387.78,11.27904
11393.57,11.36044
11399.35,11.3159
11405.14,11.32812
11410.92,11.35284
11416.71,11.37725
11422.5,11.35166
11428.28,11.49446
11434.07,11.39424
11439.85,11.441
11445.64,11.34748
11451.42,11.44734
11457.21,11.46835
11462.99,11.39494
11468.78,11.41129
11474.57,11.42281
11480.35,11.53829
11486.14,11.37625
11491.92,11.47251
11497.71,11.39972
11503.49,11.50652
11509.28,11.41461
11515.06,11.45851
11520.85,11.56551
11526.63,11.58484
11532.42,11.50878
11538.21,11.42422
11543.99,11.45548
11549.78,11.49177
11555.56,11.54917
11561.35,11.49751
11567.13,11.53013
11572.92,11.56758
11578.7,11.55725
11584.49,11.51914
11590.28,11.57313
11596.06,11.60781
11601.85,11.6554
11607.63,11.56509
11613.42,11.54536
11619.2,11.49168
11624.99,11.66013
11630.77,11.54377
11636.56,11.66489
11642.34,11.59804
11648.13,11.61867
11653.92,11.65122
11659.7,11.73705
11665.49,11.52593
11671.27,11.62813
11677.06,11.6795
11682.84,11.5385
11688.63,11.5663
11694.41,11.70043
11700.2,11.58391
11705.99,11.6627
11711.77,11.51157
11717.56,11.53823
11723.34,11.5949
11729.13,11.5628
11734.91,11.54253
11740.7,11.74955
11746.48,11.7924
11752.27,11.65019
11758.05,11.61984
11763.84,11.83691
11769.63,11.66138
11775.41,11.7185
11781.2,11.65731
11786.98,11.56599
11792.77,11.65416
11798.55,11.57764
11804.34,11.51023
11810.12,11.60427
11815.91,11.70514
11821.7,11.53368
11827.48,11.48759
11833.27,11.70182
11839.05,11.62357
11844.84,11.62882
11850.62,11.49979
11856.41,11.51664
11862.19,11.48693
11867.98,11.73216
11873.76,11.51945
11879.55,11.62615
11885.34,11.50695
11891.12,11.62649
11896.91,11.53381
11902.69,11.56596
11908.48,11.78837
11914.26,11.41117
11920.05,11.69337
11925.83,11.63057
11931.62,11.64268
11937.41,11.64776
11943.19,11.53593
11948.98,11.53608
11954.76,11.64963
11960.55,11.62224
11966.33,11.49648
11972.12,11.40387
11977.9,11.52009
11983.69,11.43578
11989.47,11.58915
11995.26,11.54117
11999.12,11.74246