File: Data/NIR/H0007HDPE_3.csv
Wavenumber,Intensity
3999.706,1.614875
4005.491,1.615866
4011.277,1.607186
4017.062,1.588985
4022.848,1.578197
4028.633,1.58741
4034.419,1.592222
4040.204,1.584995
4045.99,1.58264
4051.775,1.583041
4057.561,1.58372
4063.346,1.580976
4069.132,1.575033
4074.917,1.57591
4080.703,1.568749
4086.488,1.567728
4092.274,1.557715
4098.059,1.555168
4103.845,1.561903
4109.63,1.559559
4115.416,1.562928
4121.201,1.564826
4126.987,1.565712
4132.772,1.564881
4138.558,1.565577
4144.343,1.565842
4150.129,1.564842
4155.914,1.567838
4161.7,1.572908
4167.485,1.568761
4173.271,1.570917
4179.056,1.573214
4184.842,1.57791
4190.627,1.575991
4196.413,1.58203
4202.198,1.593773
4207.983,1.600631
4213.769,1.605247
4219.555,1.609128
4225.34,1.615569
4231.125,1.622654
4236.911,1.6239
4242.697,1.61514
4248.482,1.595977
4254.268,1.600572
4260.053,1.618325
4265.838,1.641193
4271.624,1.645377
4277.41,1.652782
4283.195,1.655068
4288.98,1.664896
4294.766,1.672724
4300.552,1.668763
4306.337,1.653653
4312.123,1.63323
4317.908,1.60672
4323.693,1.598362
4329.479,1.609097
4335.265,1.61944
4341.05,1.626726
4346.835,1.644042
4352.621,1.659819
4358.407,1.6771
4364.192,1.691959
4369.978,1.694402
4375.763,1.713742
4381.548,1.731864
4387.334,1.748406
4393.12,1.774527
4398.905,1.802809
4404.69,1.845343
4410.476,1.896285
4416.262,1.94558
4422.047,1.987959
4427.833,2.031002
4433.618,2.061902
4439.403,2.098183
4445.189,2.139661
4450.975,2.199791
4456.76,2.259312
4462.545,2.312881
4468.331,2.364997
4474.116,2.413914
4479.902,2.471539
4485.688,2.519013
4491.473,2.569698
4497.258,2.624087
4503.044,2.68086
4508.83,2.737154
4514.615,2.800684
4520.4,2.855831
4526.186,2.909739
4531.971,2.966221
4537.757,3.02155
4543.542,3.079581
4549.328,3.142315
4555.113,3.204183
4560.899,3.273957
4566.685,3.338658
4572.47,3.386655
4578.255,3.42802
4584.041,3.466094
4589.826,3.498298
4595.612,3.522408
4601.397,3.546108
4607.183,3.559745
4612.968,3.576123
4618.754,3.60014
4624.539,3.627328
4630.325,3.647593
4636.11,3.662135
4641.896,3.666276
4647.681,3.66338
4653.467,3.644228
4659.252,3.586624
4665.038,3.508759
4670.823,3.5146
4676.609,3.605299
4682.394,3.690347
4688.18,3.730501
4693.965,3.744462
4699.751,3.750287
4705.536,3.747767
4711.322,3.738525
4717.107,3.707875
4722.893,3.666194
4728.678,3.626793
4734.464,3.601095
4740.249,3.587972
4746.035,3.563929
4751.82,3.537121
4757.605,3.508934
4763.391,3.470363
4769.177,3.4183
4774.962,3.353055
4780.748,3.321837
4786.533,3.307594
4792.319,3.296576
4798.104,3.278575
4803.89,3.248263
4809.675,3.210216
4815.46,3.159345
4821.246,3.114546
4827.032,3.083366
4832.817,3.053814
4838.603,3.015995
4844.388,2.966
4850.174,2.913933
4855.959,2.867082
4861.745,2.83156
4867.53,2.810555
4873.315,2.81389
4879.101,2.825121
4884.887,2.845697
4890.672,2.867638
4896.458,2.884018
4902.243,2.894562
4908.028,2.904527
4913.814,2.91168
4919.6,2.90676
4925.385,2.905304
4931.17,2.903057
4936.956,2.905278
4942.742,2.885892
4948.527,2.852284
4954.313,2.776693
4960.098,2.674617
4965.883,2.656684
4971.669,2.695695
4977.455,2.717417
4983.24,2.749177
4989.025,2.789862
4994.811,2.832982
5000.597,2.897252
5006.382,2.941904
5012.167,2.95074
5017.953,2.954752
5023.738,2.968071
5029.524,2.992976
5035.31,3.00411
5041.095,3.003884
5046.88,3.005091
5052.666,2.989414
5058.451,2.959209
5064.237,2.942696
5070.022,2.947103
5075.808,2.947925
5081.593,2.93726
5087.379,2.926793
5093.165,2.914162
5098.95,2.906565
5104.735,2.91354
5110.521,2.927713
5116.307,2.941592
5122.092,2.949905
5127.877,2.965388
5133.663,2.97483
5139.448,2.964394
5145.234,2.941953
5151.02,2.918113
5156.805,2.898679
5162.59,2.893671
5168.376,2.903646
5174.161,2.897965
5179.947,2.886822
5185.732,2.884556
5191.518,2.88462
5197.303,2.903658
5203.089,2.905297
5208.874,2.90664
5214.66,2.898189
5220.445,2.898359
5226.231,2.915524
5232.016,2.922144
5237.802,2.929992
5243.587,2.951568
5249.373,2.956411
5255.158,2.968621
5260.944,2.977863
5266.729,2.975585
5272.515,2.959882
5278.3,2.963687
5284.086,2.97373
5289.871,2.975335
5295.657,2.952319
5301.442,2.92312
5307.228,2.907941
5313.013,2.919857
5318.799,2.995966
5324.584,3.033836
5330.37,3.03736
5336.155,3.021302
5341.94,2.976961
5347.726,2.914061
5353.512,2.861583
5359.297,2.809135
5365.083,2.765927
5370.868,2.727448
5376.654,2.70218
5382.439,2.693671
5388.225,2.670273
5394.01,2.644762
5399.796,2.605433
5405.581,2.561554
5411.367,2.506887
5417.152,2.432125
5422.938,2.407911
5428.723,2.39671
5434.509,2.387435
5440.294,2.384215
5446.08,2.371158
5451.865,2.352634
5457.65,2.347303
5463.436,2.33962
5469.222,2.323428
5475.007,2.307837
5480.792,2.272493
5486.578,2.24782
5492.363,2.238688
5498.149,2.241888
5503.935,2.257163
5509.72,2.268921
5515.505,2.281517
5521.291,2.285623
5527.077,2.284739
5532.862,2.278907
5538.647,2.276145
5544.433,2.262652
5550.219,2.256597
5556.004,2.253869
5561.79,2.272732
5567.575,2.30031
5573.36,2.340884
5579.146,2.394151
5584.932,2.426041
5590.717,2.435022
5596.502,2.422664
5602.288,2.392831
5608.073,2.348751
5613.859,2.308942
5619.645,2.268136
5625.43,2.231094
5631.215,2.201421
5637.001,2.157843
5642.786,2.11061
5648.572,2.024709
5654.357,1.916252
5660.143,1.842711
5665.929,1.836714
5671.714,1.87393
5677.5,1.931047
5683.285,1.977846
5689.07,2.012957
5694.856,2.062583
5700.642,2.131026
5706.427,2.196661
5712.212,2.231719
5717.998,2.216086
5723.783,2.12596
5729.569,1.988856
5735.354,1.960004
5741.14,1.946364
5746.925,1.889983
5752.711,1.847087
5758.496,1.81
5764.282,1.781572
5770.067,1.7573
5775.853,1.750098
5781.638,1.759717
5787.424,1.774056
5793.209,1.796967
5798.995,1.812168
5804.78,1.834159
5810.566,1.857464
5816.352,1.881492
5822.137,1.91345
5827.922,1.956945
5833.708,2.009016
5839.493,2.071159
5845.279,2.153095
5851.064,2.283703
5856.85,2.461786
5862.635,2.70648
5868.421,2.990413
5874.206,3.281489
5879.992,3.55577
5885.777,3.798047
5891.563,3.990379
5897.348,4.134375
5903.134,4.271412
5908.919,4.434042
5914.705,4.620936
5920.49,4.79539
5926.276,4.964521
5932.061,5.125594
5937.847,5.273501
5943.632,5.418273
5949.418,5.555637
5955.203,5.705266
5960.989,5.890435
5966.774,6.119905
5972.56,6.344406
5978.345,6.55795
5984.131,6.754418
5989.916,6.937557
5995.702,7.105116
6001.487,7.266065
6007.272,7.426035
6013.058,7.584792
6018.844,7.732178
6024.629,7.877741
6030.415,8.002939
6036.2,8.119882
6041.985,8.225855
6047.771,8.319494
6053.557,8.413766
6059.342,8.492172
6065.128,8.568074
6070.913,8.638687
6076.698,8.69709
6082.484,8.761029
6088.27,8.81519
6094.055,8.861745
6099.841,8.896517
6105.626,8.922307
6111.412,8.961285
6117.197,9.008772
6122.982,9.052717
6128.768,9.09687
6134.554,9.136454
6140.339,9.17697
6146.125,9.213686
6151.91,9.243176
6157.695,9.278503
6163.481,9.314645
6169.267,9.356725
6175.052,9.400128
6180.837,9.428853
6186.623,9.451088
6192.408,9.472847
6198.194,9.496725
6203.979,9.520745
6209.765,9.543161
6215.551,9.56997
6221.336,9.593121
6227.121,9.610267
6232.907,9.631263
6238.692,9.638354
6244.478,9.644151
6250.264,9.649008
6256.049,9.655232
6261.834,9.657395
6267.62,9.665881
6273.405,9.671383
6279.191,9.67736
6284.977,9.682428
6290.762,9.689074
6296.547,9.691539
6302.333,9.703248
6308.118,9.710327
6313.904,9.704154
6319.689,9.700034
6325.475,9.67938
6331.26,9.653329
6337.046,9.633375
6342.831,9.603847
6348.617,9.564464
6354.402,9.52803
6360.188,9.490565
6365.974,9.432011
6371.759,9.352188
6377.544,9.294081
6383.33,9.270549
6389.115,9.246807
6394.901,9.2263
6400.687,9.17434
6406.472,9.09346
6412.257,8.997772
6418.043,8.926722
6423.828,8.888333
6429.614,8.861259
6435.399,8.824795
6441.185,8.742446
6446.97,8.633865
6452.756,8.518903
6458.541,8.383821
6464.327,8.181249
6470.112,7.870821
6475.897,7.49509
6481.684,7.257392
6487.469,7.284004
6493.254,7.436924
6499.04,7.595541
6504.825,7.730199
6510.61,7.836755
6516.396,7.912241
6522.182,7.98185
6527.967,8.04248
6533.753,8.089232
6539.538,8.129781
6545.324,8.170726
6551.109,8.206535
6556.895,8.240265
6562.68,8.274911
6568.466,8.317365
6574.251,8.372893
6580.037,8.411364
6585.822,8.42627
6591.607,8.440716
6597.393,8.440649
6603.179,8.44548
6608.964,8.443312
6614.75,8.443497
6620.535,8.43395
6626.32,8.421166
6632.106,8.401113
6637.892,8.382236
6643.677,8.356019
6649.463,8.335115
6655.248,8.29412
6661.034,8.262169
6666.819,8.217489
6672.604,8.188818
6678.39,8.149265
6684.176,8.100828
6689.961,8.048514
6695.747,7.991889
6701.532,7.932576
6707.317,7.863797
6713.103,7.797587
6718.889,7.723104
6724.674,7.660456
6730.459,7.603937
6736.245,7.552457
6742.03,7.490893
6747.816,7.434718
6753.602,7.37783
6759.387,7.315686
6765.173,7.257181
6770.958,7.179241
6776.743,7.096472
6782.529,6.989971
6788.314,6.864139
6794.1,6.748287
6799.886,6.610466
6805.671,6.483161
6811.457,6.374786
6817.242,6.248764
6823.027,6.117535
6828.813,5.977405
6834.599,5.85628
6840.384,5.789811
6846.169,5.746359
6851.955,5.696547
6857.74,5.640757
6863.526,5.589059
6869.312,5.53557
6875.097,5.470681
6880.882,5.397645
6886.668,5.309638
6892.453,5.228191
6898.239,5.149652
6904.024,5.106121
6909.81,5.06122
6915.596,5.008749
6921.381,4.935421
6927.166,4.841788
6932.952,4.731532
6938.737,4.597238
6944.523,4.473173
6950.309,4.40424
6956.094,4.38632
6961.879,4.40071
6967.665,4.4106
6973.45,4.429519
6979.236,4.421927
6985.021,4.4034
6990.807,4.375772
6996.592,4.328865
7002.378,4.267394
7008.163,4.209102
7013.949,4.149564
7019.734,4.104134
7025.52,4.083623
7031.305,4.127038
7037.091,4.149538
7042.876,4.163052
7048.662,4.096504
7054.447,3.961843
7060.232,3.805304
7066.019,3.803931
7071.804,3.991644
7077.589,4.234868
7083.375,4.424526
7089.16,4.51101
7094.946,4.577591
7100.731,4.648731
7106.517,4.785028
7112.302,4.910679
7118.088,5.044391
7123.873,5.134604
7129.659,5.159249
7135.444,5.105517
7141.229,5.005716
7147.015,4.862606
7152.801,4.638533
7158.586,4.261484
7164.372,3.722104
7170.157,3.332342
7175.942,3.363469
7181.729,3.712199
7187.514,4.092628
7193.299,4.465284
7199.085,4.793722
7204.87,5.116082
7210.655,5.382444
7216.441,5.613078
7222.227,5.856743
7228.012,6.155012
7233.798,6.438653
7239.583,6.691854
7245.369,6.921677
7251.154,7.183293
7256.939,7.421758
7262.725,7.663355
7268.511,7.895312
7274.296,8.133864
7280.082,8.354074
7285.867,8.577546
7291.652,8.779814
7297.438,8.985131
7303.224,9.182878
7309.009,9.410473
7314.794,9.603431
7320.58,9.779541
7326.365,9.955874
7332.151,10.05814
7337.937,10.20332
7343.722,10.2833
7349.508,10.3503
7355.293,10.45142
7361.079,10.51405
7366.864,10.58389
7372.649,10.65114
7378.435,10.7018
7384.221,10.74826
7390.006,10.79272
7395.792,10.8204
7401.577,10.85518
7407.362,10.8797
7413.148,10.90288
7418.934,10.92787
7424.719,10.94522
7430.504,10.96355
7436.29,10.97003
7442.075,10.98415
7447.861,11.01521
7453.646,11.0271
7459.432,11.04391
7465.218,11.05638
7471.003,11.05771
7476.788,11.06517
7482.574,11.07508
7488.359,11.06622
7494.145,11.06107
7499.931,11.05167
7505.716,11.04816
7511.501,11.03593
7517.287,11.02941
7523.072,11.02083
7528.858,11.00721
7534.644,11.00239
7540.429,10.98859
7546.214,10.96151
7552.0,10.93675
7557.785,10.92533
7563.571,10.91312
7569.356,10.88762
7575.142,10.86834
7580.927,10.8515
7586.713,10.82852
7592.498,10.80587
7598.284,10.77794
7604.069,10.75923
7609.854,10.72242
7615.641,10.69697
7621.426,10.65968
7627.211,10.6132
7632.997,10.5819
7638.782,10.54734
7644.568,10.50332
7650.354,10.47712
7656.139,10.4387
7661.924,10.41091
7667.71,10.3786
7673.495,10.34837
7679.281,10.32903
7685.066,10.31308
7690.852,10.30192
7696.637,10.27484
7702.423,10.24799
7708.208,10.23276
7713.994,10.20508
7719.779,10.18717
7725.564,10.16256
7731.35,10.1294
7737.136,10.12701
7742.921,10.10556
7748.707,10.0857
7754.492,10.06075
7760.277,10.02398
7766.063,9.987659
7771.849,9.962019
7777.634,9.944448
7783.42,9.942538
7789.205,9.916219
7794.991,9.90721
7800.776,9.888604
7806.562,9.852234
7812.347,9.829839
7818.133,9.802779
7823.918,9.773194
7829.704,9.742681
7835.489,9.704974
7841.274,9.671717
7847.06,9.635818
7852.846,9.591332
7858.631,9.551543
7864.417,9.5029
7870.202,9.456091
7875.987,9.4004
7881.773,9.347516
7887.559,9.29121
7893.344,9.23318
7899.13,9.1962
7904.915,9.113319
7910.7,9.058715
7916.486,8.985842
7922.271,8.925344
7928.057,8.860825
7933.843,8.790704
7939.628,8.7131
7945.414,8.629068
7951.199,8.555384
7956.984,8.470088
7962.77,8.374721
7968.556,8.292562
7974.341,8.209186
7980.126,8.111012
7985.912,8.016384
7991.697,7.918164
7997.483,7.825229
8003.269,7.711702
8009.054,7.612144
8014.839,7.507413
8020.625,7.391711
8026.41,7.276757
8032.196,7.149026
8037.981,7.029279
8043.767,6.908985
8049.553,6.766182
8055.338,6.630214
8061.124,6.496888
8066.909,6.361495
8072.694,6.22587
8078.48,6.075758
8084.266,5.934788
8090.051,5.777229
8095.836,5.645974
8101.622,5.497658
8107.407,5.335642
8113.192,5.184109
8118.979,5.007662
8124.764,4.856298
8130.55,4.683713
8136.335,4.518624
8142.12,4.351196
8147.906,4.175048
8153.691,4.003703
8159.477,3.856843
8165.263,3.686841
8171.048,3.53616
8176.833,3.371288
8182.619,3.235477
8188.404,3.11448
8194.189,3.016287
8199.976,2.930541
8205.761,2.866261
8211.546,2.819996
8217.332,2.794625
8223.117,2.789271
8228.902,2.796851
8234.688,2.813151
8240.474,2.826292
8246.259,2.840397
8252.045,2.861025
8257.83,2.896607
8263.616,2.935455
8269.401,2.987835
8275.187,3.061331
8280.973,3.133594
8286.758,3.235951
8292.543,3.359016
8298.329,3.464823
8304.114,3.563999
8309.899,3.685129
8315.686,3.804601
8321.471,3.902984
8327.256,4.013448
8333.042,4.133844
8338.827,4.257916
8344.612,4.403731
8350.398,4.551189
8356.184,4.714269
8361.969,4.869779
8367.755,5.027375
8373.54,5.186299
8379.325,5.323305
8385.111,5.460869
8390.896,5.568546
8396.683,5.643244
8402.468,5.666937
8408.253,5.675308
8414.039,5.632592
8419.824,5.62431
8425.609,5.621619
8431.396,5.692817
8437.181,5.783081
8442.966,5.955683
8448.752,6.142014
8454.537,6.311734
8460.322,6.471264
8466.108,6.588559
8471.894,6.70714
8477.679,6.849324
8483.465,7.019048
8489.25,7.182883
8495.035,7.31501
8500.821,7.403116
8506.606,7.454856
8512.392,7.482932
8518.178,7.528636
8523.963,7.602379
8529.748,7.650759
8535.534,7.665127
8541.319,7.598322
8547.105,7.497297
8552.891,7.310816
8558.676,7.097488
8564.462,6.963132
8570.247,7.058867
8576.032,7.284444
8581.818,7.516906
8587.604,7.787777
8593.389,8.095011
8599.175,8.377227
8604.96,8.667001
8610.745,8.943951
8616.531,9.188816
8622.316,9.419715
8628.102,9.610265
8633.888,9.790133
8639.673,9.94501
8645.458,10.09003
8651.244,10.2108
8657.029,10.33017
8662.814,10.44791
8668.601,10.54684
8674.386,10.64986
8680.172,10.74043
8685.957,10.83382
8691.742,10.93792
8697.528,11.07035
8703.313,11.1714
8709.099,11.28693
8714.885,11.41577
8720.67,11.50607
8726.455,11.62355
8732.241,11.73874
8738.026,11.85266
8743.812,11.95089
8749.598,12.05091
8755.383,12.14865
8761.168,12.22005
8766.954,12.30133
8772.739,12.366
8778.524,12.43127
8784.311,12.48243
8790.096,12.53795
8795.881,12.57151
8801.667,12.60909
8807.452,12.65084
8813.237,12.67419
8819.023,12.69559
8824.809,12.70417
8830.595,12.72522
8836.38,12.74151
8842.165,12.763
8847.951,12.77686
8853.736,12.78599
8859.521,12.78656
8865.308,12.8125
8871.093,12.81282
8876.878,12.81087
8882.664,12.82062
8888.449,12.80076
8894.234,12.79677
8900.021,12.81841
8905.806,12.8146
8911.591,12.79435
8917.377,12.78922
8923.162,12.77236
8928.947,12.78307
8934.733,12.74761
8940.519,12.76698
8946.304,12.75701
8952.09,12.76427
8957.875,12.73943
8963.661,12.75756
8969.446,12.75863
8975.231,12.74223
8981.018,12.77724
8986.803,12.76964
8992.588,12.76923
8998.374,12.7829
9004.159,12.8086
9009.944,12.80652
9015.73,12.8175
9021.516,12.82861
9027.301,12.8189
9033.087,12.85177
9038.872,12.84039
9044.657,12.84409
9050.443,12.85081
9056.229,12.85354
9062.014,12.88779
9067.8,12.87377
9073.585,12.88575
9079.37,12.8906
9085.156,12.89647
9090.941,12.8886
9096.727,12.89253
9102.513,12.90744
9108.298,12.89696
9114.084,12.88159
9119.869,12.89058
9125.654,12.86882
9131.44,12.88667
9137.226,12.86008
9143.011,12.8523
9148.797,12.84547
9154.582,12.84293
9160.367,12.84588
9166.153,12.82676
9171.938,12.81543
9177.724,12.79415
9183.51,12.78225
9189.295,12.75024
9195.08,12.76112
9200.866,12.74958
9206.651,12.73127
9212.437,12.7304
9218.223,12.71231
9224.008,12.70522
9229.793,12.69521
9235.579,12.6985
9241.364,12.68756
9247.15,12.68259
9252.936,12.67023
9258.721,12.66098
9264.507,12.658
9270.292,12.64725
9276.077,12.63023
9281.863,12.62902
9287.648,12.6001
9293.434,12.61453
9299.22,12.58216
9305.005,12.6081
9310.79,12.60587
9316.576,12.60715
9322.361,12.63779
9328.146,12.62259
9333.933,12.60321
9339.718,12.61166
9345.503,12.61525
9351.289,12.59116
9357.074,12.56298
9362.859,12.56046
9368.646,12.54144
9374.431,12.51454
9380.217,12.49756
9386.002,12.4863
9391.787,12.45044
9397.573,12.43843
9403.358,12.42068
9409.144,12.37307
9414.93,12.38084
9420.715,12.36351
9426.5,12.30785
9432.286,12.29089
9438.071,12.2641
9443.856,12.23746
9449.643,12.20335
9455.428,12.19551
9461.213,12.15145
9466.999,12.14131
9472.784,12.10962
9478.569,12.0874
9484.355,12.06355
9490.141,12.04276
9495.926,12.05367
9501.712,12.0102
9507.497,12.02785
9513.282,12.00801
9519.068,11.986
9524.854,11.96953
9530.64,11.94697
9536.425,11.92467
9542.21,11.90643
9547.996,11.87567
9553.781,11.85197
9559.566,11.82886
9565.353,11.80286
9571.138,11.7742
9576.923,11.77731
9582.709,11.75244
9588.494,11.72659
9594.279,11.72289
9600.065,11.73043
9605.851,11.73166
9611.636,11.76128
9617.422,11.79401
9623.207,11.82584
9628.992,11.86023
9634.778,11.88725
9640.563,11.91078
9646.349,11.96682
9652.135,11.9996
9657.92,12.03241
9663.706,12.08816
9669.491,12.1359
9675.276,12.16174
9681.063,12.1773
9686.848,12.2276
9692.633,12.26764
9698.419,12.29591
9704.204,12.34148
9709.989,12.36561
9715.775,12.437
9721.561,12.45899
9727.346,12.49436
9733.132,12.55134
9738.917,12.59614
9744.702,12.62243
9750.488,12.6674
9756.273,12.67307
9762.059,12.69146
9767.845,12.69549
9773.63,12.7001
9779.415,12.72751
9785.201,12.7242
9790.986,12.73013
9796.771,12.74043
9802.558,12.75554
9808.343,12.73206
9814.129,12.71644
9819.914,12.726
9825.699,12.70623
9831.485,12.74662
9837.271,12.77461
9843.056,12.78262
9848.842,12.82969
9854.627,12.86556
9860.412,12.9215
9866.198,12.97612
9871.983,13.00627
9877.769,13.07535
9883.555,13.11262
9889.34,13.15128
9895.125,13.188
9900.911,13.19458
9906.696,13.23801
9912.481,13.24542
9918.268,13.30254
9924.053,13.31225
9929.838,13.34004
9935.624,13.39591
9941.409,13.43386
9947.195,13.46037
9952.98,13.45624
9958.766,13.51477
9964.552,13.51698
9970.337,13.55868
9976.122,13.56886
9981.908,13.59204
9987.693,13.58037
9993.479,13.6225
9999.265,13.64688
10005.05,13.62414
10010.83,13.65922
10016.62,13.68716
10022.41,13.69134
10028.19,13.69507
10033.98,13.7483
10039.76,13.75409
10045.55,13.78472
10051.33,13.80895
10057.12,13.79109
10062.9,13.79603
10068.69,13.78889
10074.48,13.84178
10080.26,13.80465
10086.05,13.87407
10091.83,13.83132
10097.62,13.85865
10103.4,13.88513
10109.19,13.90557
10114.97,13.86115
10120.76,13.85592
10126.54,13.92515
10132.33,13.90855
10138.12,13.93926
10143.9,13.91717
10149.69,13.89454
10155.47,13.89008
10161.26,13.91026
10167.04,13.9252
10172.83,13.93121
10178.61,13.90814
10184.4,13.93175
10190.19,13.93042
10195.97,13.93501
10201.76,13.91138
10207.54,13.91777
10213.33,13.93619
10219.11,13.92823
10224.9,13.93452
10230.68,13.91031
10236.47,13.93383
10242.25,13.88666
10248.04,13.87322
10253.83,13.87994
10259.61,13.88778
10265.4,13.88299
10271.18,13.90162
10276.97,13.89783
10282.75,13.86254
10288.54,13.88019
10294.32,13.86077
10300.11,13.86187
10305.9,13.8864
10311.68,13.82692
10317.47,13.83998
10323.25,13.88055
10329.04,13.83963
10334.82,13.83591
10340.61,13.83634
10346.39,13.81278
10352.18,13.8017
10357.96,13.85231
10363.75,13.8126
10369.54,13.82163
10375.32,13.7585
10381.11,13.77437
10386.89,13.78783
10392.68,13.74965
10398.46,13.75493
10404.25,13.7706
10410.03,13.75543
10415.82,13.69259
10421.61,13.72293
10427.39,13.68803
10433.18,13.66557
10438.96,13.63246
10444.75,13.69179
10450.53,13.58466
10456.32,13.6083
10462.1,13.58197
10467.89,13.56648
10473.67,13.54031
10479.46,13.50693
10485.25,13.50647
10491.03,13.49454
10496.82,13.40802
10502.6,13.39493
10508.39,13.35147
10514.17,13.33187
10519.96,13.26851
10525.74,13.17963
10531.53,13.16458
10537.32,13.1501
10543.1,13.09311
10548.89,13.00054
10554.67,12.95382
10560.46,12.85226
10566.24,12.80064
10572.03,12.75513
10577.81,12.58594
10583.6,12.54164
10589.38,12.45777
10595.17,12.38369
10600.96,12.28264
10606.74,12.16298
10612.53,12.04186
10618.31,11.9232
10624.1,11.83032
10629.88,11.71595
10635.67,11.50945
10641.45,11.47991
10647.24,11.26622
10653.03,11.15734
10658.81,11.01191
10664.6,10.9153
10670.38,10.80482
10676.17,10.67531
10681.95,10.58918
10687.74,10.47149
10693.52,10.43552
10699.31,10.32056
10705.09,10.35483
10710.88,10.2727
10716.67,10.21343
10722.45,10.24788
10728.24,10.20461
10734.02,10.24447
10739.81,10.24606
10745.59,10.2807
10751.38,10.35009
10757.16,10.40481
10762.95,10.45272
10768.74,10.53555
10774.52,10.5727
10780.31,10.7284
10786.09,10.77018
10791.88,10.78703
10797.66,10.93706
10803.45,11.00445
10809.23,11.0989
10815.02,11.23306
10820.8,11.29856
10826.59,11.37292
10832.38,11.47052
10838.16,11.6411
10843.95,11.66751
10849.73,11.76895
10855.52,11.81867
10861.3,12.00297
10867.09,12.09777
10872.87,12.1813
10878.66,12.32338
10884.45,12.32443
10890.23,12.3697
10896.02,12.46484
10901.8,12.59293
10907.59,12.64722
10913.37,12.7577
10919.16,12.79432
10924.94,12.83863
10930.73,12.91354
10936.51,13.0075
10942.3,13.08852
10948.09,13.10799
10953.87,13.19104
10959.66,13.27779
10965.44,13.39415
10971.23,13.43485
10977.01,13.42476
10982.8,13.52935
10988.58,13.53686
10994.37,13.5914
11000.16,13.6024
11005.94,13.66406
11011.73,13.71738
11017.51,13.76716
11023.3,13.83528
11029.08,13.84738
11034.87,13.82439
11040.65,13.85324
11046.44,13.86296
11052.22,13.90519
11058.01,13.95597
11063.79,14.00394
11069.58,13.98644
11075.37,14.01874
11081.15,14.03512
11086.94,13.99114
11092.72,14.02239
11098.51,14.05207
11104.29,14.02877
11110.08,13.9946
11115.87,14.02846
11121.65,14.07326
11127.44,14.09614
11133.22,14.03445
11139.01,14.0673
11144.79,14.16548
11150.58,14.14564
11156.36,14.18443
11162.15,14.16695
11167.93,14.24202
11173.72,14.21105
11179.5,14.27964
11185.29,14.31001
11191.08,14.281
11196.86,14.35665
11202.65,14.32138
11208.43,14.42795
11214.22,14.4549
11220.0,14.44199
11225.79,14.51104
11231.58,14.50591
11237.36,14.54557
11243.15,14.50978
11248.93,14.60491
11254.72,14.69412
11260.5,14.60897
11266.29,14.63588
11272.07,14.67934
11277.86,14.70567
11283.64,14.72064
11289.43,14.68419
11295.21,14.75404
11301.0,14.76468
11306.79,14.7413
11312.57,14.78896
11318.36,14.69772
11324.14,14.8079
11329.93,14.85356
11335.71,14.9373
11341.5,14.84051
11347.28,14.92029
11353.07,14.89315
11358.86,14.88031
11364.64,14.83062
11370.43,14.89902
11376.21,14.85771
11382.0,15.00378
11387.78,14.92019
11393.57,14.98115
11399.35,14.8978
11405.14,14.89091
11410.92,15.01124
11416.71,14.99136
11422.5,14.90123
11428.28,15.07502
11434.07,15.00225
11439.85,15.02301
11445.64,14.98623
11451.42,15.08565
11457.21,15.03965
11462.99,15.07365
11468.78,15.09176
11474.57,15.10627
11480.35,15.15104
11486.14,15.1258
11491.92,15.15012
11497.71,15.11162
11503.49,15.13933
11509.28,15.09111
11515.06,15.1422
11520.85,15.18806
11526.63,15.21111
11532.42,15.20907
11538.21,15.16821
11543.99,15.16805
11549.78,15.23549
11555.56,15.18168
11561.35,15.23098
11567.13,15.12453
11572.92,15.18661
11578.7,15.27468
11584.49,15.26936
11590.28,15.28633
11596.06,15.30804
11601.85,15.28477
11607.63,15.28144
11613.42,15.28738
11619.2,15.33755
11624.99,15.32291
11630.77,15.1828
11636.56,15.29591
11642.34,15.27284
11648.13,15.23719
11653.92,15.32151
11659.7,15.48795
11665.49,15.24294
11671.27,15.41237
11677.06,15.32427
11682.84,15.34636
11688.63,15.30849
11694.41,15.34013
11700.2,15.26898
11705.99,15.37015
11711.77,15.32898
11717.56,15.26851
11723.34,15.32465
11729.13,15.29618
11734.91,15.24791
11740.7,15.29046
11746.48,15.36028
11752.27,15.33012
11758.05,15.28272
11763.84,15.38688
11769.63,15.26152
11775.41,15.29131
11781.2,15.25817
11786.98,15.16521
11792.77,15.26857
11798.55,15.32732
11804.34,15.11555
11810.12,15.24601
11815.91,15.34495
11821.7,15.24033
11827.48,15.18902
11833.27,15.38668
11839.05,15.30263
11844.84,15.25377
11850.62,15.12006
11856.41,15.32823
11862.19,15.27604
11867.98,15.35922
11873.76,15.31177
11879.55,15.37267
11885.34,15.1241
11891.12,15.31373
11896.91,15.33562
11902.69,15.2594
11908.48,15.35613
11914.26,15.24899
11920.05,15.46172
11925.83,15.48048
11931.62,15.33404
11937.41,15.3017
11943.19,15.25666
11948.98,15.45244
11954.76,15.32747
11960.55,15.48568
11966.33,15.41663
11972.12,15.20173
11977.9,15.4642
11983.69,15.31617
11989.47,15.4466
11995.26,15.44905
11999.12,15.28561