File: Data/NIR/H0002LDPE_4.csv
Wavenumber,Intensity
3999.706,3.094076
4005.491,3.091009
4011.277,3.100773
4017.062,3.097271
4022.848,3.106775
4028.633,3.109268
4034.419,3.114059
4040.204,3.113683
4045.99,3.121074
4051.775,3.123589
4057.561,3.124351
4063.346,3.132086
4069.132,3.132625
4074.917,3.134496
4080.703,3.139647
4086.488,3.137332
4092.274,3.142622
4098.059,3.140235
4103.845,3.145848
4109.63,3.145895
4115.416,3.149683
4121.201,3.149402
4126.987,3.152419
4132.772,3.151152
4138.558,3.148069
4144.343,3.155681
4150.129,3.151453
4155.914,3.156955
4161.7,3.157868
4167.485,3.16152
4173.271,3.164979
4179.056,3.173932
4184.842,3.176174
4190.627,3.181754
4196.413,3.194182
4202.198,3.193533
4207.983,3.204214
4213.769,3.208147
4219.555,3.220031
4225.34,3.215785
4231.125,3.222311
4236.911,3.233027
4242.697,3.231951
4248.482,3.23223
4254.268,3.236071
4260.053,3.242612
4265.838,3.247077
4271.624,3.248837
4277.41,3.252937
4283.195,3.258014
4288.98,3.258265
4294.766,3.263029
4300.552,3.261982
4306.337,3.261889
4312.123,3.265397
4317.908,3.260227
4323.693,3.254859
4329.479,3.257228
4335.265,3.257651
4341.05,3.264309
4346.835,3.261335
4352.621,3.267005
4358.407,3.26593
4364.192,3.268558
4369.978,3.268893
4375.763,3.270973
4381.548,3.268844
4387.334,3.269223
4393.12,3.270821
4398.905,3.27079
4404.69,3.273682
4410.476,3.284973
4416.262,3.291417
4422.047,3.307921
4427.833,3.328295
4433.618,3.345234
4439.403,3.379704
4445.189,3.410998
4450.975,3.443999
4456.76,3.48786
4462.545,3.523074
4468.331,3.567976
4474.116,3.60214
4479.902,3.649496
4485.688,3.691124
4491.473,3.737143
4497.258,3.783727
4503.044,3.829022
4508.83,3.878072
4514.615,3.932039
4520.4,3.98597
4526.186,4.031429
4531.971,4.084486
4537.757,4.138966
4543.542,4.194907
4549.328,4.25068
4555.113,4.313901
4560.899,4.3766
4566.685,4.431017
4572.47,4.481413
4578.255,4.524121
4584.041,4.558477
4589.826,4.596304
4595.612,4.625582
4601.397,4.648591
4607.183,4.672751
4612.968,4.698299
4618.754,4.719311
4624.539,4.743962
4630.325,4.766316
4636.11,4.777376
4641.896,4.790091
4647.681,4.790147
4653.467,4.774979
4659.252,4.733331
4665.038,4.693676
4670.823,4.70943
4676.609,4.768761
4682.394,4.828342
4688.18,4.862908
4693.965,4.873102
4699.751,4.877416
4705.536,4.877069
4711.322,4.86998
4717.107,4.851912
4722.893,4.820733
4728.678,4.788137
4734.464,4.772187
4740.249,4.761912
4746.035,4.745155
4751.82,4.725878
4757.605,4.708932
4763.391,4.678256
4769.177,4.638672
4774.962,4.59413
4780.748,4.57201
4786.533,4.560571
4792.319,4.547998
4798.104,4.53042
4803.89,4.506526
4809.675,4.476045
4815.46,4.436769
4821.246,4.398351
4827.032,4.36982
4832.817,4.34143
4838.603,4.309859
4844.388,4.261827
4850.174,4.2158
4855.959,4.177407
4861.745,4.147439
4867.53,4.123352
4873.315,4.121646
4879.101,4.13651
4884.887,4.151264
4890.672,4.162421
4896.458,4.178658
4902.243,4.182105
4908.028,4.198833
4913.814,4.196076
4919.6,4.193964
4925.385,4.189012
4931.17,4.189931
4936.956,4.186582
4942.742,4.173496
4948.527,4.143865
4954.313,4.081974
4960.098,4.000353
4965.883,3.969043
4971.669,3.994642
4977.455,4.023019
4983.24,4.041329
4989.025,4.072711
4994.811,4.114951
5000.597,4.159844
5006.382,4.185385
5012.167,4.200386
5017.953,4.203696
5023.738,4.220336
5029.524,4.236822
5035.31,4.247973
5041.095,4.2542
5046.88,4.254393
5052.666,4.243272
5058.451,4.219872
5064.237,4.209991
5070.022,4.212787
5075.808,4.211466
5081.593,4.210693
5087.379,4.193913
5093.165,4.188223
5098.95,4.181105
5104.735,4.187745
5110.521,4.198505
5116.307,4.212163
5122.092,4.220559
5127.877,4.227719
5133.663,4.233111
5139.448,4.225099
5145.234,4.212979
5151.02,4.201461
5156.805,4.188241
5162.59,4.183125
5168.376,4.180817
5174.161,4.179283
5179.947,4.170461
5185.732,4.175179
5191.518,4.168499
5197.303,4.180223
5203.089,4.178895
5208.874,4.18734
5214.66,4.170732
5220.445,4.175701
5226.231,4.193918
5232.016,4.193815
5237.802,4.19754
5243.587,4.218463
5249.373,4.214572
5255.158,4.228252
5260.944,4.227305
5266.729,4.220157
5272.515,4.206764
5278.3,4.211328
5284.086,4.221089
5289.871,4.226707
5295.657,4.203828
5301.442,4.194102
5307.228,4.188955
5313.013,4.186846
5318.799,4.225756
5324.584,4.256747
5330.37,4.254732
5336.155,4.256089
5341.94,4.216548
5347.726,4.173242
5353.512,4.139054
5359.297,4.08761
5365.083,4.056077
5370.868,4.021197
5376.654,4.014571
5382.439,3.987201
5388.225,3.9608
5394.01,3.951452
5399.796,3.900895
5405.581,3.867486
5411.367,3.845061
5417.152,3.777578
5422.938,3.754933
5428.723,3.754999
5434.509,3.739022
5440.294,3.736269
5446.08,3.718841
5451.865,3.700466
5457.65,3.692078
5463.436,3.688294
5469.222,3.676568
5475.007,3.673598
5480.792,3.639729
5486.578,3.629872
5492.363,3.636736
5498.149,3.625141
5503.935,3.629038
5509.72,3.630468
5515.505,3.642721
5521.291,3.645133
5527.077,3.63724
5532.862,3.638815
5538.647,3.630614
5544.433,3.629884
5550.219,3.62796
5556.004,3.626482
5561.79,3.632328
5567.575,3.650817
5573.36,3.675253
5579.146,3.696599
5584.932,3.715491
5590.717,3.722623
5596.502,3.716373
5602.288,3.691828
5608.073,3.665903
5613.859,3.639024
5619.645,3.616953
5625.43,3.593822
5631.215,3.571748
5637.001,3.552856
5642.786,3.52913
5648.572,3.49328
5654.357,3.460684
5660.143,3.445889
5665.929,3.446031
5671.714,3.451727
5677.5,3.460392
5683.285,3.47517
5689.07,3.48976
5694.856,3.507786
5700.642,3.533348
5706.427,3.565342
5712.212,3.581738
5717.998,3.588851
5723.783,3.559358
5729.569,3.506886
5735.354,3.489765
5741.14,3.478096
5746.925,3.467846
5752.711,3.451689
5758.496,3.447707
5764.282,3.445786
5770.067,3.439745
5775.853,3.441373
5781.638,3.447479
5787.424,3.446548
5793.209,3.446212
5798.995,3.451542
5804.78,3.44943
5810.566,3.448988
5816.352,3.460691
5822.137,3.461519
5827.922,3.482458
5833.708,3.492856
5839.493,3.507857
5845.279,3.5417
5851.064,3.586377
5856.85,3.658736
5862.635,3.768902
5868.421,3.90284
5874.206,4.07268
5879.992,4.270671
5885.777,4.468219
5891.563,4.645806
5897.348,4.775255
5903.134,4.893748
5908.919,5.035207
5914.705,5.228291
5920.49,5.470352
5926.276,5.747026
5932.061,6.009409
5937.847,6.24898
5943.632,6.463851
5949.418,6.654665
5955.203,6.836641
5960.989,7.027947
5966.774,7.234257
5972.56,7.425713
5978.345,7.605273
5984.131,7.766875
5989.916,7.922501
5995.702,8.0643
6001.487,8.198116
6007.272,8.324512
6013.058,8.450377
6018.844,8.566716
6024.629,8.674312
6030.415,8.778643
6036.2,8.868537
6041.985,8.947927
6047.771,9.027678
6053.557,9.098569
6059.342,9.170905
6065.128,9.225945
6070.913,9.280277
6076.698,9.331043
6082.484,9.372889
6088.27,9.411599
6094.055,9.440081
6099.841,9.468989
6105.626,9.497898
6111.412,9.525711
6117.197,9.560571
6122.982,9.598915
6128.768,9.641706
6134.554,9.692746
6140.339,9.739714
6146.125,9.787144
6151.91,9.834721
6157.695,9.881971
6163.481,9.924871
6169.267,9.96746
6175.052,10.01908
6180.837,10.05056
6186.623,10.08596
6192.408,10.11234
6198.194,10.14182
6203.979,10.16424
6209.765,10.19289
6215.551,10.2106
6221.336,10.23074
6227.121,10.25043
6232.907,10.26864
6238.692,10.27631
6244.478,10.29058
6250.264,10.29794
6256.049,10.30475
6261.834,10.31053
6267.62,10.31826
6273.405,10.32664
6279.191,10.33432
6284.977,10.33914
6290.762,10.3428
6296.547,10.34988
6302.333,10.35559
6308.118,10.35509
6313.904,10.35814
6319.689,10.34933
6325.475,10.34291
6331.26,10.32743
6337.046,10.31571
6342.831,10.29922
6348.617,10.27327
6354.402,10.24842
6360.188,10.22226
6365.974,10.18654
6371.759,10.1297
6377.544,10.0921
6383.33,10.06735
6389.115,10.0518
6394.901,10.0397
6400.687,10.00677
6406.472,9.948337
6412.257,9.885385
6418.043,9.830378
6423.828,9.795697
6429.614,9.77396
6435.399,9.739833
6441.185,9.682401
6446.97,9.603991
6452.756,9.514173
6458.541,9.412895
6464.327,9.250322
6470.112,9.015173
6475.897,8.738194
6481.684,8.564531
6487.469,8.575789
6493.254,8.666692
6499.04,8.754393
6504.825,8.836718
6510.61,8.902535
6516.396,8.955013
6522.182,9.001188
6527.967,9.037064
6533.753,9.070582
6539.538,9.092462
6545.324,9.113503
6551.109,9.133452
6556.895,9.149887
6562.68,9.169718
6568.466,9.20006
6574.251,9.231597
6580.037,9.24852
6585.822,9.264342
6591.607,9.274042
6597.393,9.274093
6603.179,9.273657
6608.964,9.271452
6614.75,9.261698
6620.535,9.257174
6626.32,9.23709
6632.106,9.227458
6637.892,9.21159
6643.677,9.182964
6649.463,9.161277
6655.248,9.129211
6661.034,9.100838
6666.819,9.061042
6672.604,9.029434
6678.39,8.989209
6684.176,8.947255
6689.961,8.905311
6695.747,8.86294
6701.532,8.811837
6707.317,8.75769
6713.103,8.708098
6718.889,8.64322
6724.674,8.589064
6730.459,8.539334
6736.245,8.486041
6742.03,8.432167
6747.816,8.380796
6753.602,8.328525
6759.387,8.278528
6765.173,8.216928
6770.958,8.153394
6776.743,8.084105
6782.529,7.989789
6788.314,7.897758
6794.1,7.796389
6799.886,7.691835
6805.671,7.590465
6811.457,7.486954
6817.242,7.398132
6823.027,7.28196
6828.813,7.163175
6834.599,7.081134
6840.384,7.017229
6846.169,6.969056
6851.955,6.918315
6857.74,6.854658
6863.526,6.807873
6869.312,6.748859
6875.097,6.688795
6880.882,6.615834
6886.668,6.53931
6892.453,6.460997
6898.239,6.394746
6904.024,6.328637
6909.81,6.285443
6915.596,6.222787
6921.381,6.153089
6927.166,6.068021
6932.952,5.969181
6938.737,5.862337
6944.523,5.762259
6950.309,5.6943
6956.094,5.671776
6961.879,5.672093
6967.665,5.669866
6973.45,5.669698
6979.236,5.663456
6985.021,5.645
6990.807,5.617884
6996.592,5.584784
7002.378,5.539074
7008.163,5.483667
7013.949,5.450839
7019.734,5.404806
7025.52,5.39152
7031.305,5.396306
7037.091,5.404582
7042.876,5.390452
7048.662,5.332849
7054.447,5.225249
7060.232,5.108646
7066.019,5.097122
7071.804,5.216094
7077.589,5.377641
7083.375,5.513847
7089.16,5.602142
7094.946,5.676436
7100.731,5.752009
7106.517,5.873417
7112.302,5.966433
7118.088,6.107176
7123.873,6.176575
7129.659,6.204522
7135.444,6.184411
7141.229,6.103339
7147.015,5.977079
7152.801,5.775651
7158.586,5.465944
7164.372,5.041279
7170.157,4.735792
7175.942,4.747933
7181.729,4.976705
7187.514,5.239577
7193.299,5.510096
7199.085,5.771136
7204.87,6.052956
7210.655,6.280633
7216.441,6.495163
7222.227,6.720271
7228.012,6.968142
7233.798,7.20143
7239.583,7.392028
7245.369,7.586723
7251.154,7.791312
7256.939,7.978381
7262.725,8.189084
7268.511,8.372286
7274.296,8.566087
7280.082,8.745479
7285.867,8.940802
7291.652,9.112428
7297.438,9.284438
7303.224,9.449722
7309.009,9.628716
7314.794,9.788699
7320.58,9.92624
7326.365,10.06497
7332.151,10.14067
7337.937,10.24135
7343.722,10.31818
7349.508,10.37215
7355.293,10.46571
7361.079,10.53968
7366.864,10.6319
7372.649,10.7094
7378.435,10.7889
7384.221,10.86071
7390.006,10.92257
7395.792,10.97692
7401.577,11.01499
7407.362,11.04448
7413.148,11.07501
7418.934,11.10293
7424.719,11.11397
7430.504,11.13235
7436.29,11.15347
7442.075,11.15725
7447.861,11.16963
7453.646,11.18206
7459.432,11.20314
7465.218,11.20858
7471.003,11.21341
7476.788,11.21068
7482.574,11.21941
7488.359,11.21747
7494.145,11.22116
7499.931,11.21607
7505.716,11.20939
7511.501,11.20579
7517.287,11.19415
7523.072,11.19759
7528.858,11.18543
7534.644,11.1738
7540.429,11.1669
7546.214,11.15608
7552.0,11.13739
7557.785,11.1243
7563.571,11.12128
7569.356,11.09699
7575.142,11.08562
7580.927,11.07585
7586.713,11.06252
7592.498,11.04612
7598.284,11.02581
7604.069,11.00658
7609.854,10.98381
7615.641,10.96274
7621.426,10.93147
7627.211,10.90453
7632.997,10.88499
7638.782,10.85316
7644.568,10.83127
7650.354,10.80892
7656.139,10.77304
7661.924,10.76138
7667.71,10.74751
7673.495,10.70957
7679.281,10.69728
7685.066,10.68064
7690.852,10.66333
7696.637,10.64628
7702.423,10.63962
7708.208,10.62005
7713.994,10.59797
7719.779,10.56988
7725.564,10.56628
7731.35,10.53947
7737.136,10.52897
7742.921,10.50573
7748.707,10.48764
7754.492,10.46486
7760.277,10.43715
7766.063,10.42159
7771.849,10.38544
7777.634,10.3729
7783.42,10.36802
7789.205,10.34528
7794.991,10.34193
7800.776,10.31244
7806.562,10.28151
7812.347,10.26806
7818.133,10.24994
7823.918,10.20987
7829.704,10.19523
7835.489,10.17614
7841.274,10.13989
7847.06,10.10612
7852.846,10.07584
7858.631,10.03902
7864.417,10.00207
7870.202,9.959743
7875.987,9.926703
7881.773,9.878351
7887.559,9.83444
7893.344,9.778697
7899.13,9.730154
7904.915,9.692295
7910.7,9.644646
7916.486,9.601029
7922.271,9.525117
7928.057,9.484309
7933.843,9.413881
7939.628,9.356222
7945.414,9.294256
7951.199,9.222101
7956.984,9.158252
7962.77,9.084539
7968.556,9.008449
7974.341,8.928263
7980.126,8.85193
7985.912,8.778563
7991.697,8.701117
7997.483,8.603956
8003.269,8.521954
8009.054,8.432665
8014.839,8.33976
8020.625,8.246814
8026.41,8.132473
8032.196,8.039987
8037.981,7.911205
8043.767,7.821873
8049.553,7.703333
8055.338,7.591335
8061.124,7.471974
8066.909,7.350201
8072.694,7.226646
8078.48,7.101893
8084.266,6.978887
8090.051,6.854931
8095.836,6.720108
8101.622,6.582143
8107.407,6.444405
8113.192,6.285645
8118.979,6.14655
8124.764,5.992623
8130.55,5.834415
8136.335,5.683693
8142.12,5.539248
8147.906,5.375131
8153.691,5.242952
8159.477,5.086064
8165.263,4.937413
8171.048,4.804653
8176.833,4.664747
8182.619,4.550565
8188.404,4.449304
8194.189,4.345328
8199.976,4.281614
8205.761,4.237504
8211.546,4.197423
8217.332,4.169298
8223.117,4.17106
8228.902,4.155684
8234.688,4.160564
8240.474,4.177287
8246.259,4.187771
8252.045,4.204623
8257.83,4.225419
8263.616,4.263869
8269.401,4.290933
8275.187,4.358435
8280.973,4.40297
8286.758,4.488387
8292.543,4.563905
8298.329,4.651205
8304.114,4.748272
8309.899,4.827538
8315.686,4.916311
8321.471,5.005519
8327.256,5.096453
8333.042,5.184237
8338.827,5.29121
8344.612,5.394925
8350.398,5.515664
8356.184,5.631683
8361.969,5.753541
8367.755,5.850527
8373.54,5.969585
8379.325,6.064931
8385.111,6.161737
8390.896,6.238121
8396.683,6.302708
8402.468,6.346541
8408.253,6.37919
8414.039,6.393446
8419.824,6.400249
8425.609,6.447845
8431.396,6.518703
8437.181,6.637269
8442.966,6.765894
8448.752,6.902483
8454.537,7.055977
8460.322,7.184956
8466.108,7.293448
8471.894,7.423409
8477.679,7.529868
8483.465,7.643576
8489.25,7.761167
8495.035,7.864281
8500.821,7.953819
8506.606,8.020656
8512.392,8.058765
8518.178,8.110413
8523.963,8.162871
8529.748,8.211168
8535.534,8.229837
8541.319,8.219959
8547.105,8.156075
8552.891,8.034568
8558.676,7.933512
8564.462,7.880374
8570.247,7.954431
8576.032,8.098583
8581.818,8.260581
8587.604,8.429327
8593.389,8.620159
8599.175,8.843246
8604.96,9.037369
8610.745,9.216861
8616.531,9.397639
8622.316,9.563134
8628.102,9.719231
8633.888,9.858446
8639.673,9.968023
8645.458,10.10087
8651.244,10.18687
8657.029,10.276
8662.814,10.36477
8668.601,10.43327
8674.386,10.51146
8680.172,10.56784
8685.957,10.63014
8691.742,10.71988
8697.528,10.81241
8703.313,10.91126
8709.099,11.00141
8714.885,11.08174
8720.67,11.19307
8726.455,11.26833
8732.241,11.3599
8738.026,11.45181
8743.812,11.53638
8749.598,11.61613
8755.383,11.67561
8761.168,11.76491
8766.954,11.82831
8772.739,11.89199
8778.524,11.91657
8784.311,11.97326
8790.096,12.00956
8795.881,12.04088
8801.667,12.08407
8807.452,12.11726
8813.237,12.15142
8819.023,12.15942
8824.809,12.1927
8830.595,12.20491
8836.38,12.22794
8842.165,12.24435
8847.951,12.23929
8853.736,12.25148
8859.521,12.27198
8865.308,12.28459
8871.093,12.30422
8876.878,12.2921
8882.664,12.29066
8888.449,12.29814
8894.234,12.30448
8900.021,12.30989
8905.806,12.2965
8911.591,12.28335
8917.377,12.28652
8923.162,12.29228
8928.947,12.28968
8934.733,12.30501
8940.519,12.28335
8946.304,12.28467
8952.09,12.29098
8957.875,12.28038
8963.661,12.27666
8969.446,12.28713
8975.231,12.29318
8981.018,12.31964
8986.803,12.30235
8992.588,12.30678
8998.374,12.3296
9004.159,12.33205
9009.944,12.3208
9015.73,12.33886
9021.516,12.33551
9027.301,12.34029
9033.087,12.3449
9038.872,12.34424
9044.657,12.34127
9050.443,12.367
9056.229,12.35913
9062.014,12.35086
9067.8,12.38502
9073.585,12.37184
9079.37,12.36954
9085.156,12.38516
9090.941,12.3709
9096.727,12.38446
9102.513,12.3793
9108.298,12.39067
9114.084,12.3802
9119.869,12.38285
9125.654,12.37908
9131.44,12.37856
9137.226,12.37035
9143.011,12.36042
9148.797,12.34793
9154.582,12.35517
9160.367,12.34361
9166.153,12.34124
9171.938,12.33507
9177.724,12.33305
9183.51,12.32285
9189.295,12.3091
9195.08,12.29244
9200.866,12.29681
9206.651,12.29223
9212.437,12.30039
9218.223,12.2841
9224.008,12.25719
9229.793,12.26814
9235.579,12.25104
9241.364,12.26621
9247.15,12.25082
9252.936,12.24363
9258.721,12.24429
9264.507,12.22151
9270.292,12.21534
9276.077,12.21618
9281.863,12.19443
9287.648,12.18281
9293.434,12.1841
9299.22,12.17714
9305.005,12.19051
9310.79,12.18657
9316.576,12.19476
9322.361,12.19091
9328.146,12.19094
9333.933,12.18601
9339.718,12.1945
9345.503,12.17796
9351.289,12.17642
9357.074,12.17794
9362.859,12.15073
9368.646,12.15327
9374.431,12.13764
9380.217,12.11932
9386.002,12.11615
9391.787,12.09161
9397.573,12.08003
9403.358,12.06667
9409.144,12.05681
9414.93,12.03778
9420.715,12.02522
9426.5,12.01904
9432.286,11.99668
9438.071,11.99825
9443.856,11.95965
9449.643,11.94973
9455.428,11.94046
9461.213,11.88526
9466.999,11.87299
9472.784,11.87457
9478.569,11.86447
9484.355,11.87031
9490.141,11.84429
9495.926,11.82726
9501.712,11.81302
9507.497,11.81812
9513.282,11.81075
9519.068,11.79981
9524.854,11.7733
9530.64,11.77475
9536.425,11.75313
9542.21,11.7344
9547.996,11.72177
9553.781,11.7092
9559.566,11.69453
9565.353,11.67604
9571.138,11.6716
9576.923,11.65356
9582.709,11.63847
9588.494,11.64404
9594.279,11.62181
9600.065,11.6241
9605.851,11.63847
9611.636,11.65806
9617.422,11.68583
9623.207,11.69909
9628.992,11.72196
9634.778,11.71973
9640.563,11.74603
9646.349,11.74523
9652.135,11.81664
9657.92,11.83378
9663.706,11.82952
9669.491,11.89468
9675.276,11.90842
9681.063,11.92268
9686.848,11.93002
9692.633,11.97914
9698.419,12.0201
9704.204,12.02155
9709.989,12.06874
9715.775,12.09514
9721.561,12.10807
9727.346,12.12695
9733.132,12.15592
9738.917,12.15462
9744.702,12.20155
9750.488,12.2083
9756.273,12.24419
9762.059,12.2581
9767.845,12.25029
9773.63,12.26235
9779.415,12.27675
9785.201,12.29536
9790.986,12.26509
9796.771,12.26232
9802.558,12.2763
9808.343,12.29095
9814.129,12.25253
9819.914,12.25483
9825.699,12.29464
9831.485,12.29815
9837.271,12.29871
9843.056,12.34199
9848.842,12.36861
9854.627,12.38538
9860.412,12.41917
9866.198,12.43146
9871.983,12.46956
9877.769,12.49172
9883.555,12.50128
9889.34,12.53605
9895.125,12.54177
9900.911,12.59564
9906.696,12.61393
9912.481,12.62486
9918.268,12.6402
9924.053,12.6758
9929.838,12.70112
9935.624,12.71182
9941.409,12.73298
9947.195,12.7406
9952.98,12.76532
9958.766,12.7881
9964.552,12.8526
9970.337,12.81242
9976.122,12.83204
9981.908,12.85177
9987.693,12.84346
9993.479,12.86604
9999.265,12.85344
10005.05,12.88668
10010.83,12.89842
10016.62,12.9119
10022.41,12.90446
10028.19,12.93315
10033.98,12.9628
10039.76,12.94546
10045.55,12.985
10051.33,13.0036
10057.12,13.02759
10062.9,13.00404
10068.69,13.04587
10074.48,13.00083
10080.26,13.02913
10086.05,13.04865
10091.83,13.02608
10097.62,13.04785
10103.4,13.05126
10109.19,13.047
10114.97,13.06653
10120.76,13.07004
10126.54,13.06956
10132.33,13.05719
10138.12,13.11116
10143.9,13.11198
10149.69,13.09219
10155.47,13.08355
10161.26,13.09278
10167.04,13.13885
10172.83,13.12269
10178.61,13.10972
10184.4,13.11146
10190.19,13.1089
10195.97,13.1129
10201.76,13.10875
10207.54,13.11471
10213.33,13.16073
10219.11,13.12189
10224.9,13.12964
10230.68,13.1219
10236.47,13.10453
10242.25,13.10903
10248.04,13.12141
10253.83,13.14598
10259.61,13.13519
10265.4,13.13483
10271.18,13.12545
10276.97,13.09392
10282.75,13.06858
10288.54,13.11827
10294.32,13.10113
10300.11,13.12247
10305.9,13.11457
10311.68,13.11708
10317.47,13.045
10323.25,13.14535
10329.04,13.09485
10334.82,13.06201
10340.61,13.10033
10346.39,13.09978
10352.18,13.09149
10357.96,13.04815
10363.75,13.11512
10369.54,13.02359
10375.32,13.05933
10381.11,13.05172
10386.89,13.06049
10392.68,13.05318
10398.46,13.01239
10404.25,13.07561
10410.03,13.0119
10415.82,13.03892
10421.61,13.03671
10427.39,12.96136
10433.18,12.96523
10438.96,12.97175
10444.75,12.95975
10450.53,12.9521
10456.32,12.92993
10462.1,12.9514
10467.89,12.95273
10473.67,12.9402
10479.46,12.91658
10485.25,12.89423
10491.03,12.85739
10496.82,12.79008
10502.6,12.80177
10508.39,12.78431
10514.17,12.75201
10519.96,12.736
10525.74,12.67648
10531.53,12.61213
10537.32,12.60216
10543.1,12.63054
10548.89,12.58097
10554.67,12.51527
10560.46,12.4725
10566.24,12.40508
10572.03,12.407
10577.81,12.34383
10583.6,12.21554
10589.38,12.16355
10595.17,12.15119
10600.96,12.04666
10606.74,11.95668
10612.53,11.93057
10618.31,11.86554
10624.1,11.76683
10629.88,11.67205
10635.67,11.55759
10641.45,11.4901
10647.24,11.38481
10653.03,11.22397
10658.81,11.21454
10664.6,11.13759
10670.38,11.00809
10676.17,10.94168
10681.95,10.90266
10687.74,10.8007
10693.52,10.76832
10699.31,10.72332
10705.09,10.68771
10710.88,10.63516
10716.67,10.6368
10722.45,10.65862
10728.24,10.62374
10734.02,10.66626
10739.81,10.68591
10745.59,10.69361
10751.38,10.70782
10757.16,10.75059
10762.95,10.75549
10768.74,10.81705
10774.52,10.85279
10780.31,10.97385
10786.09,10.98934
10791.88,11.04355
10797.66,11.10058
10803.45,11.18808
10809.23,11.19102
10815.02,11.26274
10820.8,11.3136
10826.59,11.31476
10832.38,11.49841
10838.16,11.56099
10843.95,11.61127
10849.73,11.69537
10855.52,11.72189
10861.3,11.77039
10867.09,11.82665
10872.87,11.93859
10878.66,11.94859
10884.45,12.0209
10890.23,12.0478
10896.02,12.09063
10901.8,12.19882
10907.59,12.21068
10913.37,12.33605
10919.16,12.32281
10924.94,12.43964
10930.73,12.40209
10936.51,12.49284
10942.3,12.55745
10948.09,12.531
10953.87,12.57304
10959.66,12.72306
10965.44,12.68529
10971.23,12.70295
10977.01,12.76304
10982.8,12.81937
10988.58,12.91967
10994.37,12.89751
11000.16,12.8552
11005.94,12.94548
11011.73,12.94781
11017.51,13.03124
11023.3,13.16148
11029.08,13.04572
11034.87,13.05424
11040.65,13.15018
11046.44,13.14582
11052.22,13.19033
11058.01,13.1753
11063.79,13.16277
11069.58,13.21384
11075.37,13.26096
11081.15,13.33574
11086.94,13.29587
11092.72,13.24732
11098.51,13.32975
11104.29,13.34139
11110.08,13.27367
11115.87,13.33841
11121.65,13.36553
11127.44,13.25523
11133.22,13.3509
11139.01,13.33914
11144.79,13.43865
11150.58,13.38073
11156.36,13.40933
11162.15,13.43581
11167.93,13.38769
11173.72,13.49231
11179.5,13.47177
11185.29,13.46505
11191.08,13.47707
11196.86,13.50283
11202.65,13.52262
11208.43,13.62111
11214.22,13.65175
11220.0,13.64169
11225.79,13.68929
11231.58,13.77824
11237.36,13.65509
11243.15,13.6608
11248.93,13.65395
11254.72,13.73725
11260.5,13.76082
11266.29,13.62765
11272.07,13.80684
11277.86,13.69622
11283.64,13.7593
11289.43,13.69828
11295.21,13.84583
11301.0,13.73496
11306.79,13.83434
11312.57,13.88611
11318.36,13.77271
11324.14,13.86849
11329.93,13.86828
11335.71,13.8858
11341.5,13.89727
11347.28,13.89747
11353.07,13.84781
11358.86,13.77061
11364.64,13.96377
11370.43,13.88946
11376.21,13.90573
11382.0,13.80541
11387.78,13.92733
11393.57,13.92334
11399.35,13.88407
11405.14,13.99273
11410.92,13.92163
11416.71,13.90225
11422.5,13.98814
11428.28,13.96492
11434.07,14.07555
11439.85,14.07072
11445.64,14.02956
11451.42,14.10692
11457.21,14.03722
11462.99,14.0378
11468.78,14.05297
11474.57,14.09232
11480.35,14.0033
11486.14,14.06136
11491.92,13.98591
11497.71,14.09895
11503.49,13.99357
11509.28,14.14163
11515.06,14.11591
11520.85,14.13998
11526.63,14.10256
11532.42,14.15155
11538.21,14.00835
11543.99,14.18287
11549.78,14.07484
11555.56,14.11892
11561.35,14.09126
11567.13,14.15438
11572.92,14.17995
11578.7,14.23768
11584.49,13.98348
11590.28,14.19903
11596.06,14.11813
11601.85,14.22999
11607.63,14.26164
11613.42,14.22123
11619.2,14.20467
11624.99,14.25174
11630.77,14.28401
11636.56,14.28427
11642.34,14.2685
11648.13,14.29434
11653.92,14.20195
11659.7,14.25386
11665.49,14.23652
11671.27,14.27219
11677.06,14.30267
11682.84,14.34172
11688.63,14.2815
11694.41,14.14756
11700.2,14.22245
11705.99,14.19124
11711.77,14.27174
11717.56,14.24704
11723.34,14.16229
11729.13,14.1306
11734.91,14.38882
11740.7,14.16698
11746.48,14.34666
11752.27,14.27545
11758.05,14.25845
11763.84,14.31372
11769.63,14.29276
11775.41,14.26284
11781.2,14.26062
11786.98,14.24219
11792.77,14.24323
11798.55,14.27602
11804.34,14.28724
11810.12,14.12105
11815.91,14.46281
11821.7,14.27057
11827.48,14.22608
11833.27,14.11795
11839.05,14.26644
11844.84,14.17953
11850.62,14.29941
11856.41,14.12998
11862.19,14.20558
11867.98,14.12898
11873.76,14.29126
11879.55,14.24041
11885.34,14.20824
11891.12,14.17996
11896.91,14.32102
11902.69,14.31504
11908.48,14.21574
11914.26,14.18297
11920.05,14.27492
11925.83,14.26056
11931.62,14.3481
11937.41,14.34975
11943.19,14.27427
11948.98,14.22486
11954.76,14.21288
11960.55,14.31985
11966.33,14.20311
11972.12,14.33138
11977.9,14.27985
11983.69,14.12559
11989.47,14.27198
11995.26,14.26079
11999.12,14.17579