File: Data/NIR/H0007HDPE_6.csv
Wavenumber,Intensity
3999.706,1.670831
4005.491,1.660385
4011.277,1.657162
4017.062,1.630259
4022.848,1.625013
4028.633,1.630561
4034.419,1.632447
4040.204,1.628295
4045.99,1.632692
4051.775,1.630917
4057.561,1.632517
4063.346,1.625058
4069.132,1.621768
4074.917,1.617555
4080.703,1.617186
4086.488,1.604924
4092.274,1.597584
4098.059,1.597836
4103.845,1.598615
4109.63,1.599915
4115.416,1.601521
4121.201,1.601838
4126.987,1.605258
4132.772,1.606099
4138.558,1.601449
4144.343,1.601137
4150.129,1.602762
4155.914,1.604173
4161.7,1.603188
4167.485,1.607064
4173.271,1.61075
4179.056,1.614368
4184.842,1.61059
4190.627,1.615951
4196.413,1.624417
4202.198,1.630718
4207.983,1.643682
4213.769,1.645266
4219.555,1.64851
4225.34,1.652906
4231.125,1.662291
4236.911,1.670277
4242.697,1.65003
4248.482,1.628021
4254.268,1.63383
4260.053,1.655512
4265.838,1.682936
4271.624,1.689001
4277.41,1.701311
4283.195,1.707089
4288.98,1.709732
4294.766,1.722335
4300.552,1.715143
4306.337,1.698129
4312.123,1.669747
4317.908,1.636202
4323.693,1.627891
4329.479,1.645332
4335.265,1.651784
4341.05,1.668763
4346.835,1.680806
4352.621,1.710341
4358.407,1.728236
4364.192,1.739192
4369.978,1.758544
4375.763,1.770662
4381.548,1.792117
4387.334,1.811177
4393.12,1.838696
4398.905,1.872507
4404.69,1.908566
4410.476,1.960302
4416.262,2.004066
4422.047,2.046228
4427.833,2.082057
4433.618,2.11213
4439.403,2.153332
4445.189,2.199936
4450.975,2.257249
4456.76,2.31927
4462.545,2.379065
4468.331,2.438701
4474.116,2.490312
4479.902,2.556376
4485.688,2.614619
4491.473,2.680513
4497.258,2.745914
4503.044,2.809559
4508.83,2.887052
4514.615,2.961967
4520.4,3.037801
4526.186,3.103035
4531.971,3.171774
4537.757,3.246262
4543.542,3.32221
4549.328,3.398379
4555.113,3.481377
4560.899,3.573472
4566.685,3.656573
4572.47,3.725539
4578.255,3.781101
4584.041,3.829875
4589.826,3.868181
4595.612,3.901556
4601.397,3.927328
4607.183,3.949293
4612.968,3.979274
4618.754,4.001625
4624.539,4.036131
4630.325,4.06765
4636.11,4.078887
4641.896,4.08722
4647.681,4.081737
4653.467,4.050769
4659.252,3.973464
4665.038,3.869897
4670.823,3.882338
4676.609,3.99243
4682.394,4.105208
4688.18,4.16
4693.965,4.179079
4699.751,4.182722
4705.536,4.179344
4711.322,4.154659
4717.107,4.120268
4722.893,4.065533
4728.678,4.004812
4734.464,3.973727
4740.249,3.953126
4746.035,3.918448
4751.82,3.882268
4757.605,3.844526
4763.391,3.796164
4769.177,3.720386
4774.962,3.636587
4780.748,3.591502
4786.533,3.579929
4792.319,3.558009
4798.104,3.532212
4803.89,3.492786
4809.675,3.446367
4815.46,3.382756
4821.246,3.325445
4827.032,3.283291
4832.817,3.243609
4838.603,3.196281
4844.388,3.132569
4850.174,3.067756
4855.959,3.013097
4861.745,2.969332
4867.53,2.937729
4873.315,2.941965
4879.101,2.961029
4884.887,2.982913
4890.672,3.009519
4896.458,3.029909
4902.243,3.041094
4908.028,3.053799
4913.814,3.061215
4919.6,3.053492
4925.385,3.046511
4931.17,3.047405
4936.956,3.047595
4942.742,3.033644
4948.527,2.984267
4954.313,2.893337
4960.098,2.774447
4965.883,2.744655
4971.669,2.793651
4977.455,2.823073
4983.24,2.859445
4989.025,2.90719
4994.811,2.962712
5000.597,3.043641
5006.382,3.091454
5012.167,3.109078
5017.953,3.103324
5023.738,3.125219
5029.524,3.152573
5035.31,3.164742
5041.095,3.17057
5046.88,3.172841
5052.666,3.151356
5058.451,3.109696
5064.237,3.089448
5070.022,3.095751
5075.808,3.098121
5081.593,3.084791
5087.379,3.067805
5093.165,3.052032
5098.95,3.038025
5104.735,3.047516
5110.521,3.067716
5116.307,3.086718
5122.092,3.096443
5127.877,3.10841
5133.663,3.121152
5139.448,3.10855
5145.234,3.080146
5151.02,3.052275
5156.805,3.029221
5162.59,3.025198
5168.376,3.028677
5174.161,3.028229
5179.947,3.013349
5185.732,3.00865
5191.518,3.011825
5197.303,3.024414
5203.089,3.034875
5208.874,3.032233
5214.66,3.025569
5220.445,3.025876
5226.231,3.038535
5232.016,3.047535
5237.802,3.059217
5243.587,3.09176
5249.373,3.087204
5255.158,3.109564
5260.944,3.12326
5266.729,3.111052
5272.515,3.093628
5278.3,3.098381
5284.086,3.107697
5289.871,3.112406
5295.657,3.082248
5301.442,3.054173
5307.228,3.025064
5313.013,3.048598
5318.799,3.139373
5324.584,3.187907
5330.37,3.182929
5336.155,3.171056
5341.94,3.116105
5347.726,3.031896
5353.512,2.961221
5359.297,2.901605
5365.083,2.854957
5370.868,2.805217
5376.654,2.782979
5382.439,2.775892
5388.225,2.744982
5394.01,2.716983
5399.796,2.670258
5405.581,2.620656
5411.367,2.571783
5417.152,2.476205
5422.938,2.453039
5428.723,2.436169
5434.509,2.42563
5440.294,2.429536
5446.08,2.406157
5451.865,2.390363
5457.65,2.385578
5463.436,2.377106
5469.222,2.358502
5475.007,2.343868
5480.792,2.308886
5486.578,2.285711
5492.363,2.280348
5498.149,2.284321
5503.935,2.295152
5509.72,2.304665
5515.505,2.321084
5521.291,2.326034
5527.077,2.320145
5532.862,2.316331
5538.647,2.305815
5544.433,2.302051
5550.219,2.294137
5556.004,2.29417
5561.79,2.307729
5567.575,2.335619
5573.36,2.382112
5579.146,2.426542
5584.932,2.467571
5590.717,2.475793
5596.502,2.462642
5602.288,2.429352
5608.073,2.386364
5613.859,2.343119
5619.645,2.306495
5625.43,2.26682
5631.215,2.232056
5637.001,2.198106
5642.786,2.15268
5648.572,2.073617
5654.357,1.97848
5660.143,1.910339
5665.929,1.904123
5671.714,1.941056
5677.5,1.990529
5683.285,2.033557
5689.07,2.066597
5694.856,2.112394
5700.642,2.171389
5706.427,2.232853
5712.212,2.264206
5717.998,2.25557
5723.783,2.168607
5729.569,2.047923
5735.354,2.014807
5741.14,1.996617
5746.925,1.96376
5752.711,1.914611
5758.496,1.877104
5764.282,1.842313
5770.067,1.815176
5775.853,1.805435
5781.638,1.823098
5787.424,1.844014
5793.209,1.863878
5798.995,1.884991
5804.78,1.901924
5810.566,1.923645
5816.352,1.952364
5822.137,1.979397
5827.922,2.021814
5833.708,2.068959
5839.493,2.11897
5845.279,2.198925
5851.064,2.317804
5856.85,2.495919
5862.635,2.767657
5868.421,3.088101
5874.206,3.44028
5879.992,3.778743
5885.777,4.072986
5891.563,4.31569
5897.348,4.500034
5903.134,4.669986
5908.919,4.881804
5914.705,5.111457
5920.49,5.338057
5926.276,5.552469
5932.061,5.755438
5937.847,5.945953
5943.632,6.125564
5949.418,6.299396
5955.203,6.487791
5960.989,6.724949
5966.774,7.009394
5972.56,7.288261
5978.345,7.554475
5984.131,7.79625
5989.916,8.029917
5995.702,8.237308
6001.487,8.434741
6007.272,8.626873
6013.058,8.812806
6018.844,8.997502
6024.629,9.162968
6030.415,9.322422
6036.2,9.461396
6041.985,9.583783
6047.771,9.702258
6053.557,9.801588
6059.342,9.907887
6065.128,9.991348
6070.913,10.07285
6076.698,10.1468
6082.484,10.21269
6088.27,10.27503
6094.055,10.3329
6099.841,10.3652
6105.626,10.4004
6111.412,10.4406
6117.197,10.50295
6122.982,10.55301
6128.768,10.59908
6134.554,10.6462
6140.339,10.68992
6146.125,10.72967
6151.91,10.76963
6157.695,10.80969
6163.481,10.85021
6169.267,10.89766
6175.052,10.94807
6180.837,10.97888
6186.623,11.00035
6192.408,11.02194
6198.194,11.0518
6203.979,11.07051
6209.765,11.10192
6215.551,11.12921
6221.336,11.15559
6227.121,11.17804
6232.907,11.19112
6238.692,11.19697
6244.478,11.20815
6250.264,11.20987
6256.049,11.21019
6261.834,11.2167
6267.62,11.22832
6273.405,11.23363
6279.191,11.23836
6284.977,11.24412
6290.762,11.24603
6296.547,11.24311
6302.333,11.25984
6308.118,11.2591
6313.904,11.25626
6319.689,11.24017
6325.475,11.2179
6331.26,11.19139
6337.046,11.16232
6342.831,11.12365
6348.617,11.08204
6354.402,11.04323
6360.188,10.99574
6365.974,10.92203
6371.759,10.82363
6377.544,10.74863
6383.33,10.7141
6389.115,10.69558
6394.901,10.66691
6400.687,10.6112
6406.472,10.51072
6412.257,10.39682
6418.043,10.30472
6423.828,10.2561
6429.614,10.22791
6435.399,10.17672
6441.185,10.08457
6446.97,9.949936
6452.756,9.799933
6458.541,9.650984
6464.327,9.410853
6470.112,9.03672
6475.897,8.576528
6481.684,8.286846
6487.469,8.319611
6493.254,8.497565
6499.04,8.686229
6504.825,8.849892
6510.61,8.972986
6516.396,9.07159
6522.182,9.150519
6527.967,9.218959
6533.753,9.273835
6539.538,9.328244
6545.324,9.372416
6551.109,9.408752
6556.895,9.443641
6562.68,9.489314
6568.466,9.537027
6574.251,9.59936
6580.037,9.635049
6585.822,9.661003
6591.607,9.671706
6597.393,9.677356
6603.179,9.678226
6608.964,9.675996
6614.75,9.669228
6620.535,9.660747
6626.32,9.640655
6632.106,9.623674
6637.892,9.598236
6643.677,9.560773
6649.463,9.529651
6655.248,9.487964
6661.034,9.443592
6666.819,9.398111
6672.604,9.351853
6678.39,9.295789
6684.176,9.241449
6689.961,9.181087
6695.747,9.115664
6701.532,9.038908
6707.317,8.961127
6713.103,8.873145
6718.889,8.789199
6724.674,8.706915
6730.459,8.64022
6736.245,8.57006
6742.03,8.501874
6747.816,8.425552
6753.602,8.359985
6759.387,8.288472
6765.173,8.211004
6770.958,8.123179
6776.743,8.018628
6782.529,7.88408
6788.314,7.740756
6794.1,7.583914
6799.886,7.423443
6805.671,7.262398
6811.457,7.126746
6817.242,6.987327
6823.027,6.818351
6828.813,6.636564
6834.599,6.496318
6840.384,6.419814
6846.169,6.366782
6851.955,6.305686
6857.74,6.229854
6863.526,6.161805
6869.312,6.096559
6875.097,6.01578
6880.882,5.929164
6886.668,5.82199
6892.453,5.717714
6898.239,5.629066
6904.024,5.570438
6909.81,5.51952
6915.596,5.44578
6921.381,5.348365
6927.166,5.247056
6932.952,5.102104
6938.737,4.945341
6944.523,4.798223
6950.309,4.709732
6956.094,4.688319
6961.879,4.701892
6967.665,4.715252
6973.45,4.732502
6979.236,4.726145
6985.021,4.71483
6990.807,4.667244
6996.592,4.617223
7002.378,4.538068
7008.163,4.463068
7013.949,4.398144
7019.734,4.342344
7025.52,4.33154
7031.305,4.362766
7037.091,4.403309
7042.876,4.405831
7048.662,4.33009
7054.447,4.163909
7060.232,3.98155
7066.019,3.97809
7071.804,4.197406
7077.589,4.510211
7083.375,4.720677
7089.16,4.8277
7094.946,4.903981
7100.731,5.002379
7106.517,5.146651
7112.302,5.303438
7118.088,5.469883
7123.873,5.574368
7129.659,5.608847
7135.444,5.543095
7141.229,5.412448
7147.015,5.237943
7152.801,4.969695
7158.586,4.518026
7164.372,3.877624
7170.157,3.421994
7175.942,3.461725
7181.729,3.85902
7187.514,4.317888
7193.299,4.75912
7199.085,5.143056
7204.87,5.535345
7210.655,5.85743
7216.441,6.128235
7222.227,6.423136
7228.012,6.781431
7233.798,7.106882
7239.583,7.427902
7245.369,7.693162
7251.154,8.014393
7256.939,8.285352
7262.725,8.577288
7268.511,8.847366
7274.296,9.12536
7280.082,9.377855
7285.867,9.643771
7291.652,9.889999
7297.438,10.12385
7303.224,10.35035
7309.009,10.60343
7314.794,10.82891
7320.58,11.02754
7326.365,11.23616
7332.151,11.33837
7337.937,11.50726
7343.722,11.58675
7349.508,11.66427
7355.293,11.78354
7361.079,11.84837
7366.864,11.94644
7372.649,11.99067
7378.435,12.06653
7384.221,12.10133
7390.006,12.15069
7395.792,12.19064
7401.577,12.22722
7407.362,12.24507
7413.148,12.27446
7418.934,12.29951
7424.719,12.31237
7430.504,12.32369
7436.29,12.34968
7442.075,12.36068
7447.861,12.37759
7453.646,12.39969
7459.432,12.41471
7465.218,12.43269
7471.003,12.4361
7476.788,12.43424
7482.574,12.44047
7488.359,12.43735
7494.145,12.43179
7499.931,12.42148
7505.716,12.40913
7511.501,12.40253
7517.287,12.38167
7523.072,12.38353
7528.858,12.36612
7534.644,12.34108
7540.429,12.3201
7546.214,12.30562
7552.0,12.27553
7557.785,12.25269
7563.571,12.23569
7569.356,12.20745
7575.142,12.19306
7580.927,12.1684
7586.713,12.14574
7592.498,12.11578
7598.284,12.09012
7604.069,12.05201
7609.854,12.01962
7615.641,11.97685
7621.426,11.9321
7627.211,11.89329
7632.997,11.84824
7638.782,11.80239
7644.568,11.76188
7650.354,11.72669
7656.139,11.68185
7661.924,11.65096
7667.71,11.61482
7673.495,11.58185
7679.281,11.55158
7685.066,11.52861
7690.852,11.50554
7696.637,11.48026
7702.423,11.47223
7708.208,11.43265
7713.994,11.41148
7719.779,11.37454
7725.564,11.35338
7731.35,11.32296
7737.136,11.31479
7742.921,11.29343
7748.707,11.26655
7754.492,11.22915
7760.277,11.18477
7766.063,11.15707
7771.849,11.11709
7777.634,11.08172
7783.42,11.08333
7789.205,11.06565
7794.991,11.0458
7800.776,11.01791
7806.562,10.98377
7812.347,10.95013
7818.133,10.92118
7823.918,10.88611
7829.704,10.86185
7835.489,10.81465
7841.274,10.7792
7847.06,10.73022
7852.846,10.68879
7858.631,10.63431
7864.417,10.58094
7870.202,10.51561
7875.987,10.47068
7881.773,10.3961
7887.559,10.32608
7893.344,10.26195
7899.13,10.19636
7904.915,10.12203
7910.7,10.06095
7916.486,9.984764
7922.271,9.901144
7928.057,9.826127
7933.843,9.739085
7939.628,9.650308
7945.414,9.562261
7951.199,9.466921
7956.984,9.378144
7962.77,9.266702
7968.556,9.164338
7974.341,9.051101
7980.126,8.947363
7985.912,8.839656
7991.697,8.728392
7997.483,8.610314
8003.269,8.480916
8009.054,8.358964
8014.839,8.232067
8020.625,8.099447
8026.41,7.959724
8032.196,7.823446
8037.981,7.662332
8043.767,7.528479
8049.553,7.371653
8055.338,7.203821
8061.124,7.048174
8066.909,6.878131
8072.694,6.719172
8078.48,6.552849
8084.266,6.386815
8090.051,6.220071
8095.836,6.042792
8101.622,5.867405
8107.407,5.692742
8113.192,5.485658
8118.979,5.299067
8124.764,5.097695
8130.55,4.909453
8136.335,4.706566
8142.12,4.529156
8147.906,4.32896
8153.691,4.152295
8159.477,3.96489
8165.263,3.772781
8171.048,3.598972
8176.833,3.436698
8182.619,3.288627
8188.404,3.158444
8194.189,3.039372
8199.976,2.97241
8205.761,2.895677
8211.546,2.847106
8217.332,2.827742
8223.117,2.827768
8228.902,2.826689
8234.688,2.838141
8240.474,2.867613
8246.259,2.86885
8252.045,2.909588
8257.83,2.929425
8263.616,2.988686
8269.401,3.042029
8275.187,3.119023
8280.973,3.184951
8286.758,3.29461
8292.543,3.410573
8298.329,3.534081
8304.114,3.657955
8309.899,3.771965
8315.686,3.899116
8321.471,4.028539
8327.256,4.139533
8333.042,4.269092
8338.827,4.410823
8344.612,4.572083
8350.398,4.750564
8356.184,4.919034
8361.969,5.109592
8367.755,5.289062
8373.54,5.482106
8379.325,5.636317
8385.111,5.785513
8390.896,5.911541
8396.683,5.998653
8402.468,6.046005
8408.253,6.045286
8414.039,6.004299
8419.824,5.971624
8425.609,5.985714
8431.396,6.038261
8437.181,6.178818
8442.966,6.365246
8448.752,6.572813
8454.537,6.782135
8460.322,6.952372
8466.108,7.075562
8471.894,7.243339
8477.679,7.409056
8483.465,7.588595
8489.25,7.764783
8495.035,7.92164
8500.821,8.015667
8506.606,8.09522
8512.392,8.118291
8518.178,8.161555
8523.963,8.255085
8529.748,8.311636
8535.534,8.319027
8541.319,8.260947
8547.105,8.133004
8552.891,7.915755
8558.676,7.686841
8564.462,7.526942
8570.247,7.631547
8576.032,7.885783
8581.818,8.152751
8587.604,8.450575
8593.389,8.788916
8599.175,9.137093
8604.96,9.463977
8610.745,9.775129
8616.531,10.04679
8622.316,10.29223
8628.102,10.5222
8633.888,10.71649
8639.673,10.89719
8645.458,11.06364
8651.244,11.20777
8657.029,11.34224
8662.814,11.46034
8668.601,11.56136
8674.386,11.68596
8680.172,11.78344
8685.957,11.88326
8691.742,12.00808
8697.528,12.12655
8703.313,12.26584
8709.099,12.39301
8714.885,12.49967
8720.67,12.64022
8726.455,12.75489
8732.241,12.87886
8738.026,12.9961
8743.812,13.10866
8749.598,13.21385
8755.383,13.3162
8761.168,13.39089
8766.954,13.47822
8772.739,13.57265
8778.524,13.617
8784.311,13.67896
8790.096,13.72954
8795.881,13.77152
8801.667,13.82049
8807.452,13.84323
8813.237,13.8821
8819.023,13.90915
8824.809,13.93007
8830.595,13.93942
8836.38,13.95786
8842.165,13.99154
8847.951,13.98554
8853.736,13.99754
8859.521,13.99881
8865.308,14.00508
8871.093,14.02122
8876.878,14.00338
8882.664,14.02263
8888.449,14.02249
8894.234,14.01166
8900.021,14.01405
8905.806,14.00413
8911.591,13.97828
8917.377,13.9797
8923.162,13.96982
8928.947,13.97652
8934.733,13.97329
8940.519,13.94596
8946.304,13.94667
8952.09,13.93743
8957.875,13.93546
8963.661,13.94246
8969.446,13.94963
8975.231,13.94187
8981.018,13.95865
8986.803,13.95104
8992.588,13.96704
8998.374,13.97643
9004.159,13.99039
9009.944,13.9815
9015.73,14.02147
9021.516,14.00667
9027.301,14.03026
9033.087,14.01934
9038.872,14.01667
9044.657,14.03881
9050.443,14.03222
9056.229,14.0572
9062.014,14.05212
9067.8,14.07141
9073.585,14.05986
9079.37,14.06049
9085.156,14.08736
9090.941,14.074
9096.727,14.08962
9102.513,14.06583
9108.298,14.07455
9114.084,14.06962
9119.869,14.07042
9125.654,14.05999
9131.44,14.06037
9137.226,14.0387
9143.011,14.02391
9148.797,14.01583
9154.582,14.002
9160.367,14.00842
9166.153,13.98275
9171.938,13.96625
9177.724,13.97603
9183.51,13.94427
9189.295,13.94491
9195.08,13.90665
9200.866,13.9011
9206.651,13.9021
9212.437,13.88334
9218.223,13.87369
9224.008,13.85718
9229.793,13.83569
9235.579,13.83714
9241.364,13.83475
9247.15,13.8168
9252.936,13.81501
9258.721,13.79101
9264.507,13.77166
9270.292,13.77387
9276.077,13.74669
9281.863,13.72994
9287.648,13.70908
9293.434,13.7143
9299.22,13.71188
9305.005,13.72812
9310.79,13.72181
9316.576,13.73644
9322.361,13.73496
9328.146,13.73874
9333.933,13.72312
9339.718,13.71052
9345.503,13.70637
9351.289,13.68925
9357.074,13.69543
9362.859,13.66965
9368.646,13.6494
9374.431,13.63519
9380.217,13.61129
9386.002,13.57857
9391.787,13.56865
9397.573,13.53247
9403.358,13.50275
9409.144,13.48468
9414.93,13.46905
9420.715,13.43649
9426.5,13.41413
9432.286,13.38717
9438.071,13.34766
9443.856,13.3221
9449.643,13.29826
9455.428,13.28339
9461.213,13.2168
9466.999,13.18001
9472.784,13.16076
9478.569,13.13502
9484.355,13.12989
9490.141,13.11236
9495.926,13.09105
9501.712,13.07931
9507.497,13.06378
9513.282,13.05262
9519.068,13.02646
9524.854,12.98096
9530.64,12.98276
9536.425,12.95633
9542.21,12.93173
9547.996,12.89478
9553.781,12.8796
9559.566,12.8788
9565.353,12.82245
9571.138,12.80294
9576.923,12.76625
9582.709,12.74724
9588.494,12.75212
9594.279,12.72
9600.065,12.73499
9605.851,12.75165
9611.636,12.78286
9617.422,12.81021
9623.207,12.84034
9628.992,12.87512
9634.778,12.89352
9640.563,12.91848
9646.349,12.93303
9652.135,13.01493
9657.92,13.0684
9663.706,13.08665
9669.491,13.1649
9675.276,13.20432
9681.063,13.23816
9686.848,13.26183
9692.633,13.30099
9698.419,13.34948
9704.204,13.40127
9709.989,13.42469
9715.775,13.49093
9721.561,13.51694
9727.346,13.55947
9733.132,13.59977
9738.917,13.64452
9744.702,13.66702
9750.488,13.70675
9756.273,13.74671
9762.059,13.76291
9767.845,13.76361
9773.63,13.78667
9779.415,13.76012
9785.201,13.78829
9790.986,13.78455
9796.771,13.75305
9802.558,13.74487
9808.343,13.77094
9814.129,13.7709
9819.914,13.77991
9825.699,13.7853
9831.485,13.76923
9837.271,13.80977
9843.056,13.82991
9848.842,13.88339
9854.627,13.9122
9860.412,13.95922
9866.198,14.00653
9871.983,14.05907
9877.769,14.11005
9883.555,14.13434
9889.34,14.19984
9895.125,14.23702
9900.911,14.2345
9906.696,14.32315
9912.481,14.31723
9918.268,14.34406
9924.053,14.38045
9929.838,14.39951
9935.624,14.44336
9941.409,14.46614
9947.195,14.4959
9952.98,14.5309
9958.766,14.57502
9964.552,14.60299
9970.337,14.59768
9976.122,14.60673
9981.908,14.63587
9987.693,14.68051
9993.479,14.66287
9999.265,14.67474
10005.05,14.68421
10010.83,14.71203
10016.62,14.72462
10022.41,14.76699
10028.19,14.79632
10033.98,14.80363
10039.76,14.79508
10045.55,14.81706
10051.33,14.85381
10057.12,14.87143
10062.9,14.88749
10068.69,14.89362
10074.48,14.86737
10080.26,14.90715
10086.05,14.9266
10091.83,14.9332
10097.62,14.91935
10103.4,14.93716
10109.19,14.92199
10114.97,14.9474
10120.76,14.92122
10126.54,14.97264
10132.33,14.95936
10138.12,14.9696
10143.9,14.98018
10149.69,14.96023
10155.47,14.95554
10161.26,14.96132
10167.04,14.97691
10172.83,14.99626
10178.61,14.98233
10184.4,14.99203
10190.19,14.93842
10195.97,15.00504
10201.76,14.95612
10207.54,15.00327
10213.33,15.01687
10219.11,14.976
10224.9,14.99469
10230.68,14.96959
10236.47,14.94095
10242.25,14.9344
10248.04,14.95317
10253.83,14.97178
10259.61,14.94552
10265.4,14.96277
10271.18,14.91078
10276.97,14.89483
10282.75,14.9075
10288.54,14.91524
10294.32,14.8785
10300.11,14.90928
10305.9,14.91409
10311.68,14.91608
10317.47,14.88265
10323.25,14.92062
10329.04,14.89035
10334.82,14.84548
10340.61,14.85691
10346.39,14.84764
10352.18,14.86925
10357.96,14.83793
10363.75,14.87413
10369.54,14.77858
10375.32,14.85695
10381.11,14.78851
10386.89,14.8105
10392.68,14.80156
10398.46,14.77577
10404.25,14.78456
10410.03,14.73854
10415.82,14.77061
10421.61,14.75113
10427.39,14.71867
10433.18,14.67938
10438.96,14.65363
10444.75,14.66717
10450.53,14.60634
10456.32,14.65631
10462.1,14.59606
10467.89,14.60398
10473.67,14.54992
10479.46,14.54009
10485.25,14.49078
10491.03,14.46455
10496.82,14.3729
10502.6,14.32804
10508.39,14.33766
10514.17,14.30241
10519.96,14.21813
10525.74,14.18392
10531.53,14.1008
10537.32,14.05243
10543.1,14.033
10548.89,13.96564
10554.67,13.87899
10560.46,13.79355
10566.24,13.7226
10572.03,13.6567
10577.81,13.54964
10583.6,13.42145
10589.38,13.37495
10595.17,13.28823
10600.96,13.13727
10606.74,13.00645
10612.53,12.94751
10618.31,12.80179
10624.1,12.66697
10629.88,12.49496
10635.67,12.40031
10641.45,12.23322
10647.24,12.10628
10653.03,11.96642
10658.81,11.8374
10664.6,11.65952
10670.38,11.50681
10676.17,11.43357
10681.95,11.33138
10687.74,11.17926
10693.52,11.13993
10699.31,11.03501
10705.09,11.01418
10710.88,10.94429
10716.67,10.94642
10722.45,10.96633
10728.24,10.88502
10734.02,10.99558
10739.81,10.93251
10745.59,11.01823
10751.38,11.04935
10757.16,11.09198
10762.95,11.19435
10768.74,11.23659
10774.52,11.31851
10780.31,11.41265
10786.09,11.47667
10791.88,11.61973
10797.66,11.61982
10803.45,11.79855
10809.23,11.82552
10815.02,11.95407
10820.8,12.01704
10826.59,12.11627
10832.38,12.28547
10838.16,12.45296
10843.95,12.55397
10849.73,12.62515
10855.52,12.69647
10861.3,12.80614
10867.09,12.88108
10872.87,13.00311
10878.66,13.07511
10884.45,13.16736
10890.23,13.23638
10896.02,13.36592
10901.8,13.43647
10907.59,13.49201
10913.37,13.62017
10919.16,13.68083
10924.94,13.75258
10930.73,13.84849
10936.51,13.91156
10942.3,13.98184
10948.09,14.05825
10953.87,14.14104
10959.66,14.21872
10965.44,14.30441
10971.23,14.29908
10977.01,14.38481
10982.8,14.42873
10988.58,14.48613
10994.37,14.5715
11000.16,14.65839
11005.94,14.64103
11011.73,14.6119
11017.51,14.69289
11023.3,14.80039
11029.08,14.74011
11034.87,14.77926
11040.65,14.89582
11046.44,14.85361
11052.22,14.89005
11058.01,14.89607
11063.79,14.82684
11069.58,14.92116
11075.37,14.94957
11081.15,14.96874
11086.94,14.98472
11092.72,14.93319
11098.51,15.05661
11104.29,15.02011
11110.08,15.01517
11115.87,15.02221
11121.65,15.07631
11127.44,14.98714
11133.22,15.11527
11139.01,15.09214
11144.79,15.15576
11150.58,15.1506
11156.36,15.06757
11162.15,15.12689
11167.93,15.18326
11173.72,15.24632
11179.5,15.21854
11185.29,15.24561
11191.08,15.31085
11196.86,15.28054
11202.65,15.33883
11208.43,15.37083
11214.22,15.46816
11220.0,15.46727
11225.79,15.51216
11231.58,15.52973
11237.36,15.55692
11243.15,15.49945
11248.93,15.53499
11254.72,15.60365
11260.5,15.63913
11266.29,15.63256
11272.07,15.71725
11277.86,15.63349
11283.64,15.67585
11289.43,15.6363
11295.21,15.77328
11301.0,15.68576
11306.79,15.78462
11312.57,15.76521
11318.36,15.70122
11324.14,15.74602
11329.93,15.8557
11335.71,15.80475
11341.5,15.82021
11347.28,15.82639
11353.07,15.79684
11358.86,15.80223
11364.64,15.84239
11370.43,15.89192
11376.21,15.80342
11382.0,15.81878
11387.78,15.94676
11393.57,15.91748
11399.35,15.91531
11405.14,15.94223
11410.92,15.91994
11416.71,15.93453
11422.5,15.97079
11428.28,16.02703
11434.07,15.96593
11439.85,16.02132
11445.64,15.96344
11451.42,16.06585
11457.21,16.0368
11462.99,16.04076
11468.78,16.01774
11474.57,16.03949
11480.35,16.01678
11486.14,16.06
11491.92,16.00055
11497.71,16.13676
11503.49,16.08401
11509.28,16.07949
11515.06,16.14416
11520.85,16.17512
11526.63,16.11325
11532.42,16.1941
11538.21,16.1436
11543.99,16.15548
11549.78,16.16028
11555.56,16.17109
11561.35,16.21211
11567.13,16.20643
11572.92,16.20932
11578.7,16.24529
11584.49,16.14539
11590.28,16.28101
11596.06,16.16008
11601.85,16.22484
11607.63,16.28392
11613.42,16.07129
11619.2,16.20171
11624.99,16.26142
11630.77,16.20092
11636.56,16.22244
11642.34,16.25335
11648.13,16.34306
11653.92,16.26144
11659.7,16.23443
11665.49,16.22403
11671.27,16.28579
11677.06,16.22726
11682.84,16.32908
11688.63,16.28018
11694.41,16.18617
11700.2,16.23146
11705.99,16.18408
11711.77,16.26665
11717.56,16.28528
11723.34,16.18782
11729.13,16.26319
11734.91,16.3455
11740.7,16.24743
11746.48,16.13608
11752.27,16.1608
11758.05,16.28443
11763.84,16.20739
11769.63,16.20786
11775.41,16.13333
11781.2,16.15007
11786.98,16.10336
11792.77,16.11705
11798.55,15.99813
11804.34,15.96999
11810.12,16.03948
11815.91,16.22902
11821.7,16.17035
11827.48,16.095
11833.27,16.03039
11839.05,16.21952
11844.84,16.11463
11850.62,16.13662
11856.41,16.09197
11862.19,16.12745
11867.98,15.96981
11873.76,16.0625
11879.55,16.10113
11885.34,16.00627
11891.12,16.07608
11896.91,16.19631
11902.69,16.1142
11908.48,15.99115
11914.26,16.08087
11920.05,16.15431
11925.83,15.9097
11931.62,16.06595
11937.41,16.09123
11943.19,16.0463
11948.98,15.91695
11954.76,15.86829
11960.55,16.06958
11966.33,15.95991
11972.12,16.01884
11977.9,15.95447
11983.69,15.85859
11989.47,15.92766
11995.26,15.80513
11999.12,15.93723