File: Data/NIR/H0007HDPE_5.csv
Wavenumber,Intensity
3999.706,1.801897
4005.491,1.791533
4011.277,1.783443
4017.062,1.759999
4022.848,1.756642
4028.633,1.761337
4034.419,1.766376
4040.204,1.761354
4045.99,1.763696
4051.775,1.759409
4057.561,1.761954
4063.346,1.758839
4069.132,1.753669
4074.917,1.754008
4080.703,1.75251
4086.488,1.735891
4092.274,1.735667
4098.059,1.72935
4103.845,1.73328
4109.63,1.735877
4115.416,1.737666
4121.201,1.736613
4126.987,1.73901
4132.772,1.741133
4138.558,1.737645
4144.343,1.738213
4150.129,1.739619
4155.914,1.73878
4161.7,1.741112
4167.485,1.742252
4173.271,1.743491
4179.056,1.748155
4184.842,1.75107
4190.627,1.751732
4196.413,1.759512
4202.198,1.765237
4207.983,1.779475
4213.769,1.780525
4219.555,1.78429
4225.34,1.786931
4231.125,1.800955
4236.911,1.803301
4242.697,1.792045
4248.482,1.768068
4254.268,1.772915
4260.053,1.792263
4265.838,1.815199
4271.624,1.82264
4277.41,1.834002
4283.195,1.840258
4288.98,1.843703
4294.766,1.851215
4300.552,1.849142
4306.337,1.832663
4312.123,1.804341
4317.908,1.776149
4323.693,1.76728
4329.479,1.781039
4335.265,1.792458
4341.05,1.802441
4346.835,1.815358
4352.621,1.844248
4358.407,1.859375
4364.192,1.869771
4369.978,1.885348
4375.763,1.898726
4381.548,1.918426
4387.334,1.934693
4393.12,1.966894
4398.905,1.996217
4404.69,2.041596
4410.476,2.093928
4416.262,2.146603
4422.047,2.194219
4427.833,2.236731
4433.618,2.270208
4439.403,2.312566
4445.189,2.365133
4450.975,2.42846
4456.76,2.49437
4462.545,2.557318
4468.331,2.622455
4474.116,2.676945
4479.902,2.737246
4485.688,2.801791
4491.473,2.866606
4497.258,2.924842
4503.044,2.99281
4508.83,3.067081
4514.615,3.139547
4520.4,3.207899
4526.186,3.272085
4531.971,3.338044
4537.757,3.407113
4543.542,3.472765
4549.328,3.545969
4555.113,3.628981
4560.899,3.713132
4566.685,3.786668
4572.47,3.848386
4578.255,3.901837
4584.041,3.943462
4589.826,3.983845
4595.612,4.014255
4601.397,4.033532
4607.183,4.058871
4612.968,4.08277
4618.754,4.105942
4624.539,4.135516
4630.325,4.160898
4636.11,4.176234
4641.896,4.183934
4647.681,4.180112
4653.467,4.148897
4659.252,4.079601
4665.038,3.988595
4670.823,3.999532
4676.609,4.101997
4682.394,4.201891
4688.18,4.254957
4693.965,4.273416
4699.751,4.278628
4705.536,4.272797
4711.322,4.255601
4717.107,4.227632
4722.893,4.174299
4728.678,4.12106
4734.464,4.089992
4740.249,4.076138
4746.035,4.042024
4751.82,4.011587
4757.605,3.979975
4763.391,3.929935
4769.177,3.862193
4774.962,3.787618
4780.748,3.748393
4786.533,3.735064
4792.319,3.719317
4798.104,3.693852
4803.89,3.658234
4809.675,3.611626
4815.46,3.553818
4821.246,3.501174
4827.032,3.462005
4832.817,3.422803
4838.603,3.379284
4844.388,3.319833
4850.174,3.257846
4855.959,3.205685
4861.745,3.161451
4867.53,3.132319
4873.315,3.132737
4879.101,3.15559
4884.887,3.176954
4890.672,3.202918
4896.458,3.221002
4902.243,3.236203
4908.028,3.248727
4913.814,3.251374
4919.6,3.248183
4925.385,3.242066
4931.17,3.237052
4936.956,3.241126
4942.742,3.227183
4948.527,3.181863
4954.313,3.087011
4960.098,2.972164
4965.883,2.943002
4971.669,2.992873
4977.455,3.024607
4983.24,3.057292
4989.025,3.104294
4994.811,3.162057
5000.597,3.237938
5006.382,3.287029
5012.167,3.301023
5017.953,3.30086
5023.738,3.317467
5029.524,3.345935
5035.31,3.36057
5041.095,3.363007
5046.88,3.36509
5052.666,3.345962
5058.451,3.306528
5064.237,3.286263
5070.022,3.292944
5075.808,3.29139
5081.593,3.280658
5087.379,3.267022
5093.165,3.25131
5098.95,3.238439
5104.735,3.249725
5110.521,3.26668
5116.307,3.281889
5122.092,3.297738
5127.877,3.311239
5133.663,3.317692
5139.448,3.307989
5145.234,3.282549
5151.02,3.254063
5156.805,3.230919
5162.59,3.225292
5168.376,3.23164
5174.161,3.226942
5179.947,3.22073
5185.732,3.214015
5191.518,3.215523
5197.303,3.231201
5203.089,3.233562
5208.874,3.242939
5214.66,3.226579
5220.445,3.233924
5226.231,3.24926
5232.016,3.257217
5237.802,3.267597
5243.587,3.291779
5249.373,3.304646
5255.158,3.31784
5260.944,3.319348
5266.729,3.318317
5272.515,3.299952
5278.3,3.298135
5284.086,3.312539
5289.871,3.313563
5295.657,3.287999
5301.442,3.258394
5307.228,3.233304
5313.013,3.252741
5318.799,3.343917
5324.584,3.383973
5330.37,3.383644
5336.155,3.367432
5341.94,3.309114
5347.726,3.241196
5353.512,3.1728
5359.297,3.110767
5365.083,3.066953
5370.868,3.013774
5376.654,2.999027
5382.439,2.983196
5388.225,2.957934
5394.01,2.930909
5399.796,2.875762
5405.581,2.827884
5411.367,2.772054
5417.152,2.680426
5422.938,2.649503
5428.723,2.639688
5434.509,2.622585
5440.294,2.619949
5446.08,2.605212
5451.865,2.584617
5457.65,2.581951
5463.436,2.570917
5469.222,2.554708
5475.007,2.536222
5480.792,2.495254
5486.578,2.465924
5492.363,2.461618
5498.149,2.463928
5503.935,2.477304
5509.72,2.492528
5515.505,2.510562
5521.291,2.507819
5527.077,2.509797
5532.862,2.506642
5538.647,2.492475
5544.433,2.485677
5550.219,2.476433
5556.004,2.475847
5561.79,2.496697
5567.575,2.525795
5573.36,2.575095
5579.146,2.626054
5584.932,2.671874
5590.717,2.679649
5596.502,2.665555
5602.288,2.629303
5608.073,2.579225
5613.859,2.529219
5619.645,2.494438
5625.43,2.449643
5631.215,2.410355
5637.001,2.370938
5642.786,2.317712
5648.572,2.227525
5654.357,2.111108
5660.143,2.038797
5665.929,2.031834
5671.714,2.070112
5677.5,2.1263
5683.285,2.176658
5689.07,2.219275
5694.856,2.271295
5700.642,2.340113
5706.427,2.412401
5712.212,2.444725
5717.998,2.430118
5723.783,2.337927
5729.569,2.187723
5735.354,2.159057
5741.14,2.138821
5746.925,2.091847
5752.711,2.044452
5758.496,2.005628
5764.282,1.972586
5770.067,1.942976
5775.853,1.936557
5781.638,1.953532
5787.424,1.967576
5793.209,1.987565
5798.995,2.011344
5804.78,2.027494
5810.566,2.05433
5816.352,2.081623
5822.137,2.111003
5827.922,2.159379
5833.708,2.215231
5839.493,2.274346
5845.279,2.364698
5851.064,2.504108
5856.85,2.705522
5862.635,2.989631
5868.421,3.313101
5874.206,3.655744
5879.992,3.975444
5885.777,4.2589
5891.563,4.482229
5897.348,4.652615
5903.134,4.811891
5908.919,5.009136
5914.705,5.222285
5920.49,5.427332
5926.276,5.622168
5932.061,5.804946
5937.847,5.981262
5943.632,6.145312
5949.418,6.305929
5955.203,6.478845
5960.989,6.6893
5966.774,6.951968
5972.56,7.206034
5978.345,7.447231
5984.131,7.668992
5989.916,7.876705
5995.702,8.065755
6001.487,8.250568
6007.272,8.423144
6013.058,8.596729
6018.844,8.76416
6024.629,8.915793
6030.415,9.061605
6036.2,9.18614
6041.985,9.301749
6047.771,9.410471
6053.557,9.507071
6059.342,9.596975
6065.128,9.676159
6070.913,9.753821
6076.698,9.82065
6082.484,9.881195
6088.27,9.941075
6094.055,9.988287
6099.841,10.02492
6105.626,10.05817
6111.412,10.09928
6117.197,10.15354
6122.982,10.20315
6128.768,10.24018
6134.554,10.28648
6140.339,10.33087
6146.125,10.36854
6151.91,10.40413
6157.695,10.44168
6163.481,10.47739
6169.267,10.52248
6175.052,10.57407
6180.837,10.59993
6186.623,10.62159
6192.408,10.6439
6198.194,10.66865
6203.979,10.69268
6209.765,10.71989
6215.551,10.74165
6221.336,10.77217
6227.121,10.7861
6232.907,10.80772
6238.692,10.81414
6244.478,10.82389
6250.264,10.82384
6256.049,10.82592
6261.834,10.83405
6267.62,10.84167
6273.405,10.8521
6279.191,10.85588
6284.977,10.86572
6290.762,10.86163
6296.547,10.86266
6302.333,10.87898
6308.118,10.87712
6313.904,10.88021
6319.689,10.8648
6325.475,10.84755
6331.26,10.82082
6337.046,10.79502
6342.831,10.76313
6348.617,10.72405
6354.402,10.68621
6360.188,10.64257
6365.974,10.57782
6371.759,10.49042
6377.544,10.41613
6383.33,10.39181
6389.115,10.37156
6394.901,10.35165
6400.687,10.30034
6406.472,10.20893
6412.257,10.10129
6418.043,10.01897
6423.828,9.974185
6429.614,9.946828
6435.399,9.900565
6441.185,9.81455
6446.97,9.696096
6452.756,9.561705
6458.541,9.421132
6464.327,9.200914
6470.112,8.858778
6475.897,8.434774
6481.684,8.168338
6487.469,8.202429
6493.254,8.374839
6499.04,8.544037
6504.825,8.694844
6510.61,8.808833
6516.396,8.897395
6522.182,8.971713
6527.967,9.039199
6533.753,9.095235
6539.538,9.138909
6545.324,9.181181
6551.109,9.216441
6556.895,9.248445
6562.68,9.288023
6568.466,9.337724
6574.251,9.394226
6580.037,9.427408
6585.822,9.4502
6591.607,9.462893
6597.393,9.466021
6603.179,9.469312
6608.964,9.468323
6614.75,9.463436
6620.535,9.453301
6626.32,9.43808
6632.106,9.421229
6637.892,9.402905
6643.677,9.371238
6649.463,9.336987
6655.248,9.3019
6661.034,9.260814
6666.819,9.216134
6672.604,9.176007
6678.39,9.124749
6684.176,9.081265
6689.961,9.020882
6695.747,8.962456
6701.532,8.896046
6707.317,8.819936
6713.103,8.739478
6718.889,8.660604
6724.674,8.591825
6730.459,8.534781
6736.245,8.467901
6742.03,8.39791
6747.816,8.336982
6753.602,8.269064
6759.387,8.207701
6765.173,8.140304
6770.958,8.059224
6776.743,7.962574
6782.529,7.838638
6788.314,7.708116
6794.1,7.559574
6799.886,7.41557
6805.671,7.269533
6811.457,7.141129
6817.242,7.017464
6823.027,6.857756
6828.813,6.692141
6834.599,6.564776
6840.384,6.49494
6846.169,6.443408
6851.955,6.384676
6857.74,6.313153
6863.526,6.255412
6869.312,6.191043
6875.097,6.123191
6880.882,6.039072
6886.668,5.945213
6892.453,5.844825
6898.239,5.766413
6904.024,5.704673
6909.81,5.659014
6915.596,5.591468
6921.381,5.499049
6927.166,5.405434
6932.952,5.272006
6938.737,5.128442
6944.523,4.983782
6950.309,4.895705
6956.094,4.885339
6961.879,4.899782
6967.665,4.909955
6973.45,4.92234
6979.236,4.920758
6985.021,4.906903
6990.807,4.866676
6996.592,4.807217
7002.378,4.742712
7008.163,4.67388
7013.949,4.609707
7019.734,4.552238
7025.52,4.539646
7031.305,4.571881
7037.091,4.611485
7042.876,4.619924
7048.662,4.54884
7054.447,4.384914
7060.232,4.210655
7066.019,4.203295
7071.804,4.424113
7077.589,4.709575
7083.375,4.918172
7089.16,5.019155
7094.946,5.093156
7100.731,5.183338
7106.517,5.332633
7112.302,5.468203
7118.088,5.639418
7123.873,5.725496
7129.659,5.759558
7135.444,5.691786
7141.229,5.573299
7147.015,5.415478
7152.801,5.157873
7158.586,4.710239
7164.372,4.102521
7170.157,3.663665
7175.942,3.702217
7181.729,4.101336
7187.514,4.537931
7193.299,4.949944
7199.085,5.327877
7204.87,5.707423
7210.655,5.992582
7216.441,6.247318
7222.227,6.528721
7228.012,6.858161
7233.798,7.188602
7239.583,7.450149
7245.369,7.727452
7251.154,8.007624
7256.939,8.266907
7262.725,8.543292
7268.511,8.789642
7274.296,9.046001
7280.082,9.28436
7285.867,9.519131
7291.652,9.743114
7297.438,9.964389
7303.224,10.17613
7309.009,10.42022
7314.794,10.63259
7320.58,10.81679
7326.365,11.00246
7332.151,11.11659
7337.937,11.25159
7343.722,11.35593
7349.508,11.42773
7355.293,11.53355
7361.079,11.59703
7366.864,11.67503
7372.649,11.72462
7378.435,11.78836
7384.221,11.83515
7390.006,11.88237
7395.792,11.92012
7401.577,11.94854
7407.362,11.97781
7413.148,11.99536
7418.934,12.02984
7424.719,12.03442
7430.504,12.05122
7436.29,12.06597
7442.075,12.07463
7447.861,12.10064
7453.646,12.12225
7459.432,12.13656
7465.218,12.15115
7471.003,12.1549
7476.788,12.15449
7482.574,12.16626
7488.359,12.16258
7494.145,12.15364
7499.931,12.14903
7505.716,12.13644
7511.501,12.12747
7517.287,12.11708
7523.072,12.11212
7528.858,12.09608
7534.644,12.07953
7540.429,12.06511
7546.214,12.04334
7552.0,12.01591
7557.785,12.00234
7563.571,11.97777
7569.356,11.95566
7575.142,11.93682
7580.927,11.92032
7586.713,11.89082
7592.498,11.87019
7598.284,11.84356
7604.069,11.81154
7609.854,11.78112
7615.641,11.74676
7621.426,11.69934
7627.211,11.66984
7632.997,11.6318
7638.782,11.58247
7644.568,11.54332
7650.354,11.50698
7656.139,11.46616
7661.924,11.44722
7667.71,11.41351
7673.495,11.38015
7679.281,11.35902
7685.066,11.33571
7690.852,11.3151
7696.637,11.29697
7702.423,11.28125
7708.208,11.24697
7713.994,11.22682
7719.779,11.19155
7725.564,11.17572
7731.35,11.15124
7737.136,11.13142
7742.921,11.12116
7748.707,11.09102
7754.492,11.07035
7760.277,11.02213
7766.063,10.99174
7771.849,10.95699
7777.634,10.93494
7783.42,10.92211
7789.205,10.90965
7794.991,10.90408
7800.776,10.88204
7806.562,10.83424
7812.347,10.80687
7818.133,10.78517
7823.918,10.74386
7829.704,10.7218
7835.489,10.68312
7841.274,10.64688
7847.06,10.6025
7852.846,10.56736
7858.631,10.51305
7864.417,10.46455
7870.202,10.41193
7875.987,10.35017
7881.773,10.2957
7887.559,10.24033
7893.344,10.17266
7899.13,10.10665
7904.915,10.04634
7910.7,9.97896
7916.486,9.918542
7922.271,9.832945
7928.057,9.770415
7933.843,9.682254
7939.628,9.60511
7945.414,9.519636
7951.199,9.436784
7956.984,9.339652
7962.77,9.251748
7968.556,9.146626
7974.341,9.048147
7980.126,8.952943
7985.912,8.853662
7991.697,8.730393
7997.483,8.634146
8003.269,8.52156
8009.054,8.406428
8014.839,8.279159
8020.625,8.155885
8026.41,8.034303
8032.196,7.900889
8037.981,7.758399
8043.767,7.624065
8049.553,7.478781
8055.338,7.325642
8061.124,7.169658
8066.909,7.024955
8072.694,6.86858
8078.48,6.711565
8084.266,6.553695
8090.051,6.398097
8095.836,6.230953
8101.622,6.060692
8107.407,5.89171
8113.192,5.704912
8118.979,5.522654
8124.764,5.3273
8130.55,5.151858
8136.335,4.954972
8142.12,4.784472
8147.906,4.588159
8153.691,4.419032
8159.477,4.218802
8165.263,4.044214
8171.048,3.862622
8176.833,3.705322
8182.619,3.543958
8188.404,3.411314
8194.189,3.285966
8199.976,3.220354
8205.761,3.138008
8211.546,3.086803
8217.332,3.058595
8223.117,3.060446
8228.902,3.068398
8234.688,3.073708
8240.474,3.098785
8246.259,3.1115
8252.045,3.151273
8257.83,3.158255
8263.616,3.225122
8269.401,3.284168
8275.187,3.36431
8280.973,3.450287
8286.758,3.557677
8292.543,3.673986
8298.329,3.781714
8304.114,3.91507
8309.899,4.042012
8315.686,4.162219
8321.471,4.284675
8327.256,4.408007
8333.042,4.537284
8338.827,4.671051
8344.612,4.834614
8350.398,5.001074
8356.184,5.172552
8361.969,5.359329
8367.755,5.537061
8373.54,5.697943
8379.325,5.867702
8385.111,6.007005
8390.896,6.117181
8396.683,6.20252
8402.468,6.256596
8408.253,6.248796
8414.039,6.204839
8419.824,6.179491
8425.609,6.188739
8431.396,6.250694
8437.181,6.386687
8442.966,6.553699
8448.752,6.746972
8454.537,6.950805
8460.322,7.122616
8466.108,7.236826
8471.894,7.375798
8477.679,7.554952
8483.465,7.715998
8489.25,7.886682
8495.035,8.028773
8500.821,8.130542
8506.606,8.192878
8512.392,8.225704
8518.178,8.270182
8523.963,8.350912
8529.748,8.407515
8535.534,8.424675
8541.319,8.362938
8547.105,8.233123
8552.891,8.047704
8558.676,7.80318
8564.462,7.652256
8570.247,7.763627
8576.032,7.997963
8581.818,8.254491
8587.604,8.541354
8593.389,8.846269
8599.175,9.189825
8604.96,9.504834
8610.745,9.783123
8616.531,10.04588
8622.316,10.29273
8628.102,10.4929
8633.888,10.67638
8639.673,10.86137
8645.458,11.01097
8651.244,11.1344
8657.029,11.26944
8662.814,11.3857
8668.601,11.4852
8674.386,11.59328
8680.172,11.69015
8685.957,11.7893
8691.742,11.90569
8697.528,12.02282
8703.313,12.15432
8709.099,12.26485
8714.885,12.37549
8720.67,12.50099
8726.455,12.60433
8732.241,12.72349
8738.026,12.85013
8743.812,12.9403
8749.598,13.04372
8755.383,13.14499
8761.168,13.22192
8766.954,13.31537
8772.739,13.38729
8778.524,13.4296
8784.311,13.48923
8790.096,13.54193
8795.881,13.58432
8801.667,13.63091
8807.452,13.66095
8813.237,13.69751
8819.023,13.7089
8824.809,13.74613
8830.595,13.75411
8836.38,13.7698
8842.165,13.80384
8847.951,13.78288
8853.736,13.8017
8859.521,13.81085
8865.308,13.83327
8871.093,13.83469
8876.878,13.83321
8882.664,13.83741
8888.449,13.82996
8894.234,13.81599
8900.021,13.81911
8905.806,13.81928
8911.591,13.79262
8917.377,13.78724
8923.162,13.79842
8928.947,13.77536
8934.733,13.78452
8940.519,13.76456
8946.304,13.76836
8952.09,13.75519
8957.875,13.76207
8963.661,13.76203
8969.446,13.77367
8975.231,13.75536
8981.018,13.78701
8986.803,13.77138
8992.588,13.78251
8998.374,13.79684
9004.159,13.80807
9009.944,13.81464
9015.73,13.83217
9021.516,13.8343
9027.301,13.86241
9033.087,13.85079
9038.872,13.85248
9044.657,13.87614
9050.443,13.8788
9056.229,13.86622
9062.014,13.88395
9067.8,13.89245
9073.585,13.88966
9079.37,13.88057
9085.156,13.90596
9090.941,13.89675
9096.727,13.91387
9102.513,13.91031
9108.298,13.9194
9114.084,13.89937
9119.869,13.89462
9125.654,13.894
9131.44,13.89518
9137.226,13.87661
9143.011,13.86862
9148.797,13.84979
9154.582,13.83918
9160.367,13.83039
9166.153,13.82
9171.938,13.80532
9177.724,13.80234
9183.51,13.789
9189.295,13.77477
9195.08,13.76152
9200.866,13.73838
9206.651,13.73679
9212.437,13.73285
9218.223,13.71789
9224.008,13.70269
9229.793,13.70601
9235.579,13.70636
9241.364,13.69825
9247.15,13.66739
9252.936,13.66725
9258.721,13.6659
9264.507,13.63432
9270.292,13.64493
9276.077,13.61699
9281.863,13.59358
9287.648,13.59288
9293.434,13.58372
9299.22,13.58266
9305.005,13.59976
9310.79,13.59258
9316.576,13.61775
9322.361,13.58974
9328.146,13.60255
9333.933,13.61017
9339.718,13.57469
9345.503,13.57926
9351.289,13.57191
9357.074,13.56238
9362.859,13.53923
9368.646,13.5196
9374.431,13.49729
9380.217,13.49126
9386.002,13.46923
9391.787,13.44614
9397.573,13.42118
9403.358,13.40413
9409.144,13.37969
9414.93,13.35903
9420.715,13.31478
9426.5,13.32213
9432.286,13.28437
9438.071,13.25395
9443.856,13.21484
9449.643,13.20609
9455.428,13.15714
9461.213,13.12214
9466.999,13.09607
9472.784,13.07893
9478.569,13.06274
9484.355,13.0554
9490.141,13.01083
9495.926,13.00533
9501.712,13.00364
9507.497,12.99072
9513.282,12.97433
9519.068,12.94712
9524.854,12.93042
9530.64,12.90932
9536.425,12.88004
9542.21,12.85699
9547.996,12.83363
9553.781,12.8172
9559.566,12.79867
9565.353,12.7568
9571.138,12.75024
9576.923,12.72244
9582.709,12.71301
9588.494,12.66247
9594.279,12.65487
9600.065,12.67732
9605.851,12.68355
9611.636,12.72856
9617.422,12.74614
9623.207,12.79795
9628.992,12.81368
9634.778,12.83321
9640.563,12.86044
9646.349,12.87285
9652.135,12.93753
9657.92,12.99815
9663.706,13.0185
9669.491,13.07606
9675.276,13.12313
9681.063,13.16122
9686.848,13.18274
9692.633,13.22719
9698.419,13.28344
9704.204,13.30265
9709.989,13.3479
9715.775,13.40468
9721.561,13.43627
9727.346,13.48711
9733.132,13.50232
9738.917,13.55008
9744.702,13.58864
9750.488,13.60142
9756.273,13.65122
9762.059,13.65506
9767.845,13.67786
9773.63,13.69844
9779.415,13.70922
9785.201,13.70238
9790.986,13.68453
9796.771,13.67712
9802.558,13.6809
9808.343,13.67808
9814.129,13.68861
9819.914,13.69378
9825.699,13.70468
9831.485,13.72171
9837.271,13.72379
9843.056,13.75891
9848.842,13.80644
9854.627,13.83539
9860.412,13.87857
9866.198,13.91351
9871.983,13.96606
9877.769,13.98399
9883.555,14.03834
9889.34,14.10829
9895.125,14.11683
9900.911,14.16422
9906.696,14.2127
9912.481,14.2394
9918.268,14.26455
9924.053,14.27608
9929.838,14.27538
9935.624,14.35622
9941.409,14.36202
9947.195,14.38939
9952.98,14.42008
9958.766,14.45905
9964.552,14.49889
9970.337,14.48291
9976.122,14.50457
9981.908,14.53143
9987.693,14.54935
9993.479,14.5547
9999.265,14.54556
10005.05,14.59053
10010.83,14.60349
10016.62,14.62844
10022.41,14.6467
10028.19,14.64771
10033.98,14.68447
10039.76,14.72067
10045.55,14.70545
10051.33,14.73504
10057.12,14.74872
10062.9,14.78867
10068.69,14.77376
10074.48,14.77702
10080.26,14.78731
10086.05,14.844
10091.83,14.79758
10097.62,14.79382
10103.4,14.81691
10109.19,14.79814
10114.97,14.81531
10120.76,14.83806
10126.54,14.84186
10132.33,14.84422
10138.12,14.84036
10143.9,14.86746
10149.69,14.85817
10155.47,14.88001
10161.26,14.86864
10167.04,14.8751
10172.83,14.88089
10178.61,14.87949
10184.4,14.84304
10190.19,14.84713
10195.97,14.87783
10201.76,14.87069
10207.54,14.88408
10213.33,14.88581
10219.11,14.8681
10224.9,14.88985
10230.68,14.87299
10236.47,14.81863
10242.25,14.85812
10248.04,14.88431
10253.83,14.87378
10259.61,14.8821
10265.4,14.88975
10271.18,14.85022
10276.97,14.83487
10282.75,14.8032
10288.54,14.8194
10294.32,14.83356
10300.11,14.82396
10305.9,14.84609
10311.68,14.82634
10317.47,14.78349
10323.25,14.82103
10329.04,14.77435
10334.82,14.76259
10340.61,14.78581
10346.39,14.80528
10352.18,14.77571
10357.96,14.76116
10363.75,14.75999
10369.54,14.71425
10375.32,14.75712
10381.11,14.7301
10386.89,14.73195
10392.68,14.74027
10398.46,14.69931
10404.25,14.72991
10410.03,14.66531
10415.82,14.71363
10421.61,14.68995
10427.39,14.61618
10433.18,14.62849
10438.96,14.60625
10444.75,14.58507
10450.53,14.58002
10456.32,14.56666
10462.1,14.56083
10467.89,14.52918
10473.67,14.50644
10479.46,14.48633
10485.25,14.43747
10491.03,14.39498
10496.82,14.32669
10502.6,14.29578
10508.39,14.27377
10514.17,14.24713
10519.96,14.17478
10525.74,14.11418
10531.53,14.02583
10537.32,14.01211
10543.1,14.0296
10548.89,13.95731
10554.67,13.87008
10560.46,13.7806
10566.24,13.70014
10572.03,13.68195
10577.81,13.55344
10583.6,13.44431
10589.38,13.34553
10595.17,13.27304
10600.96,13.14036
10606.74,13.02764
10612.53,12.95205
10618.31,12.84712
10624.1,12.70415
10629.88,12.58335
10635.67,12.46547
10641.45,12.2826
10647.24,12.18464
10653.03,12.0425
10658.81,11.92678
10664.6,11.79653
10670.38,11.64928
10676.17,11.50749
10681.95,11.40692
10687.74,11.29115
10693.52,11.28151
10699.31,11.15963
10705.09,11.10454
10710.88,11.07319
10716.67,11.06644
10722.45,11.10713
10728.24,11.04913
10734.02,11.09051
10739.81,11.03619
10745.59,11.13887
10751.38,11.21151
10757.16,11.23651
10762.95,11.27229
10768.74,11.3457
10774.52,11.38158
10780.31,11.53901
10786.09,11.58809
10791.88,11.71072
10797.66,11.78791
10803.45,11.90171
10809.23,11.93694
10815.02,12.07321
10820.8,12.09917
10826.59,12.192
10832.38,12.3841
10838.16,12.52581
10843.95,12.614
10849.73,12.67872
10855.52,12.74949
10861.3,12.83031
10867.09,13.00276
10872.87,13.07443
10878.66,13.13285
10884.45,13.23026
10890.23,13.26273
10896.02,13.39628
10901.8,13.48328
10907.59,13.56342
10913.37,13.65798
10919.16,13.727
10924.94,13.78497
10930.73,13.84799
10936.51,13.92735
10942.3,14.04692
10948.09,14.08299
10953.87,14.14798
10959.66,14.25284
10965.44,14.31442
10971.23,14.29017
10977.01,14.42157
10982.8,14.47264
10988.58,14.50211
10994.37,14.52181
11000.16,14.59093
11005.94,14.64513
11011.73,14.63081
11017.51,14.66805
11023.3,14.77371
11029.08,14.75735
11034.87,14.78468
11040.65,14.79463
11046.44,14.81531
11052.22,14.90969
11058.01,14.89897
11063.79,14.87959
11069.58,14.95602
11075.37,14.93203
11081.15,14.97543
11086.94,14.94932
11092.72,14.89889
11098.51,14.99648
11104.29,15.00227
11110.08,14.95228
11115.87,14.99756
11121.65,15.03874
11127.44,14.94522
11133.22,15.06717
11139.01,15.02626
11144.79,15.11566
11150.58,15.13938
11156.36,15.09351
11162.15,15.17511
11167.93,15.0928
11173.72,15.19476
11179.5,15.19862
11185.29,15.19304
11191.08,15.23918
11196.86,15.23319
11202.65,15.32341
11208.43,15.33015
11214.22,15.42777
11220.0,15.42276
11225.79,15.46832
11231.58,15.55032
11237.36,15.52006
11243.15,15.50625
11248.93,15.57531
11254.72,15.6115
11260.5,15.64596
11266.29,15.57515
11272.07,15.65971
11277.86,15.58329
11283.64,15.73112
11289.43,15.63382
11295.21,15.67163
11301.0,15.66802
11306.79,15.69372
11312.57,15.7603
11318.36,15.73336
11324.14,15.83852
11329.93,15.84109
11335.71,15.71004
11341.5,15.83308
11347.28,15.83032
11353.07,15.81354
11358.86,15.74676
11364.64,15.81374
11370.43,15.76886
11376.21,15.76415
11382.0,15.81436
11387.78,15.87905
11393.57,15.9519
11399.35,15.81298
11405.14,15.85222
11410.92,15.85816
11416.71,15.8336
11422.5,15.95489
11428.28,15.98919
11434.07,15.96247
11439.85,15.99499
11445.64,15.95547
11451.42,15.97957
11457.21,16.06751
11462.99,16.02724
11468.78,15.95113
11474.57,16.00439
11480.35,16.03259
11486.14,15.97952
11491.92,16.04628
11497.71,16.10119
11503.49,16.01517
11509.28,16.07882
11515.06,16.10875
11520.85,16.09052
11526.63,16.12818
11532.42,16.18635
11538.21,16.18686
11543.99,16.24055
11549.78,16.15182
11555.56,16.07318
11561.35,16.19445
11567.13,16.17288
11572.92,16.19451
11578.7,16.18984
11584.49,16.1195
11590.28,16.25504
11596.06,16.10916
11601.85,16.20961
11607.63,16.28755
11613.42,16.1258
11619.2,16.23841
11624.99,16.2619
11630.77,16.20023
11636.56,16.28978
11642.34,16.27941
11648.13,16.25749
11653.92,16.26867
11659.7,16.30123
11665.49,16.31442
11671.27,16.25515
11677.06,16.22852
11682.84,16.27894
11688.63,16.23571
11694.41,16.202
11700.2,16.24179
11705.99,16.27258
11711.77,16.3147
11717.56,16.25101
11723.34,16.06484
11729.13,16.26383
11734.91,16.30378
11740.7,16.22288
11746.48,16.14432
11752.27,16.25482
11758.05,16.18791
11763.84,16.12725
11769.63,16.24111
11775.41,16.13838
11781.2,16.09705
11786.98,16.18581
11792.77,16.06622
11798.55,16.01633
11804.34,16.03837
11810.12,16.09751
11815.91,16.27028
11821.7,16.22848
11827.48,16.10191
11833.27,16.14403
11839.05,16.20946
11844.84,16.08682
11850.62,16.16126
11856.41,16.11771
11862.19,16.07177
11867.98,16.06145
11873.76,16.09083
11879.55,16.1029
11885.34,16.07006
11891.12,16.05763
11896.91,16.19458
11902.69,16.06316
11908.48,15.96764
11914.26,16.18974
11920.05,16.03233
11925.83,16.03266
11931.62,16.05872
11937.41,16.07923
11943.19,16.00516
11948.98,16.02034
11954.76,15.97316
11960.55,16.06327
11966.33,16.11747
11972.12,16.00923
11977.9,16.07488
11983.69,15.99235
11989.47,15.96672
11995.26,15.96832
11999.12,15.97038