File: Data/NIR/H0008HDPE_4.csv
Wavenumber,Intensity
3999.706,3.068518
4005.491,3.063295
4011.277,3.057843
4017.062,3.045583
4022.848,3.040198
4028.633,3.048933
4034.419,3.051101
4040.204,3.049849
4045.99,3.051146
4051.775,3.050479
4057.561,3.053504
4063.346,3.057476
4069.132,3.053146
4074.917,3.052406
4080.703,3.048398
4086.488,3.039439
4092.274,3.036594
4098.059,3.032691
4103.845,3.041812
4109.63,3.040327
4115.416,3.044901
4121.201,3.044476
4126.987,3.047205
4132.772,3.048372
4138.558,3.042114
4144.343,3.04441
4150.129,3.048538
4155.914,3.04981
4161.7,3.047655
4167.485,3.053822
4173.271,3.056684
4179.056,3.062505
4184.842,3.064438
4190.627,3.071473
4196.413,3.078889
4202.198,3.092123
4207.983,3.106061
4213.769,3.110187
4219.555,3.114126
4225.34,3.12212
4231.125,3.138399
4236.911,3.142503
4242.697,3.128736
4248.482,3.100249
4254.268,3.103746
4260.053,3.138228
4265.838,3.158674
4271.624,3.168016
4277.41,3.176987
4283.195,3.185164
4288.98,3.187108
4294.766,3.199943
4300.552,3.196474
4306.337,3.182742
4312.123,3.157296
4317.908,3.113094
4323.693,3.093517
4329.479,3.122524
4335.265,3.139047
4341.05,3.151923
4346.835,3.164348
4352.621,3.190546
4358.407,3.205256
4364.192,3.21583
4369.978,3.23158
4375.763,3.246751
4381.548,3.268924
4387.334,3.286215
4393.12,3.326849
4398.905,3.369747
4404.69,3.426252
4410.476,3.495666
4416.262,3.552161
4422.047,3.607701
4427.833,3.653873
4433.618,3.689937
4439.403,3.735212
4445.189,3.786549
4450.975,3.85188
4456.76,3.919723
4462.545,3.977532
4468.331,4.028207
4474.116,4.058455
4479.902,4.119456
4485.688,4.194202
4491.473,4.262831
4497.258,4.330418
4503.044,4.399184
4508.83,4.465789
4514.615,4.536617
4520.4,4.607083
4526.186,4.665403
4531.971,4.727226
4537.757,4.794059
4543.542,4.862054
4549.328,4.935274
4555.113,5.010889
4560.899,5.09329
4566.685,5.164145
4572.47,5.224217
4578.255,5.272739
4584.041,5.314239
4589.826,5.347396
4595.612,5.369783
4601.397,5.379935
4607.183,5.406005
4612.968,5.438959
4618.754,5.468545
4624.539,5.501934
4630.325,5.527655
4636.11,5.54128
4641.896,5.552999
4647.681,5.549466
4653.467,5.52788
4659.252,5.467036
4665.038,5.386906
4670.823,5.395113
4676.609,5.491136
4682.394,5.58694
4688.18,5.635118
4693.965,5.647251
4699.751,5.650301
4705.536,5.634804
4711.322,5.597903
4717.107,5.55497
4722.893,5.523122
4728.678,5.501568
4734.464,5.496733
4740.249,5.493443
4746.035,5.475406
4751.82,5.453502
4757.605,5.431491
4763.391,5.387045
4769.177,5.330193
4774.962,5.261007
4780.748,5.225263
4786.533,5.218946
4792.319,5.20263
4798.104,5.182548
4803.89,5.152208
4809.675,5.115423
4815.46,5.061204
4821.246,5.017669
4827.032,4.985246
4832.817,4.947075
4838.603,4.907767
4844.388,4.856822
4850.174,4.797005
4855.959,4.748041
4861.745,4.707349
4867.53,4.680636
4873.315,4.684905
4879.101,4.707935
4884.887,4.731699
4890.672,4.760255
4896.458,4.781309
4902.243,4.798502
4908.028,4.811964
4913.814,4.814141
4919.6,4.81383
4925.385,4.808779
4931.17,4.810385
4936.956,4.814985
4942.742,4.798657
4948.527,4.758503
4954.313,4.669786
4960.098,4.552851
4965.883,4.531331
4971.669,4.587351
4977.455,4.620121
4983.24,4.650924
4989.025,4.700523
4994.811,4.75716
5000.597,4.836244
5006.382,4.886444
5012.167,4.903738
5017.953,4.90158
5023.738,4.921772
5029.524,4.953258
5035.31,4.967921
5041.095,4.97486
5046.88,4.975024
5052.666,4.957488
5058.451,4.91889
5064.237,4.904143
5070.022,4.908702
5075.808,4.912851
5081.593,4.905774
5087.379,4.890562
5093.165,4.875518
5098.95,4.864676
5104.735,4.879067
5110.521,4.901764
5116.307,4.917537
5122.092,4.932757
5127.877,4.947445
5133.663,4.961365
5139.448,4.947496
5145.234,4.926667
5151.02,4.89677
5156.805,4.875916
5162.59,4.874755
5168.376,4.884326
5174.161,4.880047
5179.947,4.87338
5185.732,4.864729
5191.518,4.86952
5197.303,4.886351
5203.089,4.899315
5208.874,4.897967
5214.66,4.890663
5220.445,4.896017
5226.231,4.912282
5232.016,4.919199
5237.802,4.934553
5243.587,4.963758
5249.373,4.965303
5255.158,4.988074
5260.944,5.000463
5266.729,4.990505
5272.515,4.976954
5278.3,4.977646
5284.086,4.991534
5289.871,4.999766
5295.657,4.968252
5301.442,4.939431
5307.228,4.915128
5313.013,4.937907
5318.799,5.032485
5324.584,5.082098
5330.37,5.084597
5336.155,5.07253
5341.94,5.014076
5347.726,4.93568
5353.512,4.869265
5359.297,4.8059
5365.083,4.757456
5370.868,4.711571
5376.654,4.692697
5382.439,4.683623
5388.225,4.658623
5394.01,4.63161
5399.796,4.575227
5405.581,4.527687
5411.367,4.472174
5417.152,4.364779
5422.938,4.335772
5428.723,4.323085
5434.509,4.310807
5440.294,4.31973
5446.08,4.295485
5451.865,4.273409
5457.65,4.269769
5463.436,4.257226
5469.222,4.241925
5475.007,4.224773
5480.792,4.175126
5486.578,4.141168
5492.363,4.135056
5498.149,4.14227
5503.935,4.159379
5509.72,4.177456
5515.505,4.196595
5521.291,4.205414
5527.077,4.201847
5532.862,4.196364
5538.647,4.185895
5544.433,4.176301
5550.219,4.167513
5556.004,4.169475
5561.79,4.191234
5567.575,4.229787
5573.36,4.290472
5579.146,4.35405
5584.932,4.407345
5590.717,4.41983
5596.502,4.401641
5602.288,4.3602
5608.073,4.307812
5613.859,4.25146
5619.645,4.204264
5625.43,4.152765
5631.215,4.108696
5637.001,4.057349
5642.786,3.986302
5648.572,3.858675
5654.357,3.684216
5660.143,3.559298
5665.929,3.550184
5671.714,3.61602
5677.5,3.714598
5683.285,3.796723
5689.07,3.862771
5694.856,3.936107
5700.642,4.028962
5706.427,4.127809
5712.212,4.173656
5717.998,4.155446
5723.783,4.021626
5729.569,3.80618
5735.354,3.763148
5741.14,3.729033
5746.925,3.658225
5752.711,3.575919
5758.496,3.506558
5764.282,3.449423
5770.067,3.403524
5775.853,3.393925
5781.638,3.413167
5787.424,3.448864
5793.209,3.482362
5798.995,3.516899
5804.78,3.554711
5810.566,3.599921
5816.352,3.648401
5822.137,3.704231
5827.922,3.780652
5833.708,3.863167
5839.493,3.959583
5845.279,4.089774
5851.064,4.276627
5856.85,4.543622
5862.635,4.895497
5868.421,5.270607
5874.206,5.637848
5879.992,5.957858
5885.777,6.229217
5891.563,6.445365
5897.348,6.63778
5903.134,6.820114
5908.919,6.989467
5914.705,7.150114
5920.49,7.294968
5926.276,7.444098
5932.061,7.590962
5937.847,7.737172
5943.632,7.873315
5949.418,8.008361
5955.203,8.170357
5960.989,8.381275
5966.774,8.633905
5972.56,8.886537
5978.345,9.127513
5984.131,9.348687
5989.916,9.551069
5995.702,9.74083
6001.487,9.905873
6007.272,10.07049
6013.058,10.23227
6018.844,10.39487
6024.629,10.56076
6030.415,10.70626
6036.2,10.83062
6041.985,10.9405
6047.771,11.04272
6053.557,11.13441
6059.342,11.22292
6065.128,11.28769
6070.913,11.35721
6076.698,11.42411
6082.484,11.48679
6088.27,11.53922
6094.055,11.53572
6099.841,11.43366
6105.626,11.32398
6111.412,11.36117
6117.197,11.49938
6122.982,11.61635
6128.768,11.71305
6134.554,11.80378
6140.339,11.89123
6146.125,11.95839
6151.91,12.01463
6157.695,12.06857
6163.481,12.11871
6169.267,12.17321
6175.052,12.22904
6180.837,12.26277
6186.623,12.28984
6192.408,12.31556
6198.194,12.34435
6203.979,12.36948
6209.765,12.4008
6215.551,12.42267
6221.336,12.45699
6227.121,12.48275
6232.907,12.4998
6238.692,12.51319
6244.478,12.52511
6250.264,12.53449
6256.049,12.53343
6261.834,12.5492
6267.62,12.5575
6273.405,12.57326
6279.191,12.58235
6284.977,12.59469
6290.762,12.59466
6296.547,12.6036
6302.333,12.61505
6308.118,12.6216
6313.904,12.62998
6319.689,12.61813
6325.475,12.60208
6331.26,12.57524
6337.046,12.55326
6342.831,12.52143
6348.617,12.48694
6354.402,12.44914
6360.188,12.41842
6365.974,12.35404
6371.759,12.26546
6377.544,12.20425
6383.33,12.1792
6389.115,12.16247
6394.901,12.13841
6400.687,12.09295
6406.472,12.00569
6412.257,11.90443
6418.043,11.825
6423.828,11.78258
6429.614,11.76607
6435.399,11.72098
6441.185,11.64069
6446.97,11.51927
6452.756,11.38661
6458.541,11.2551
6464.327,11.04518
6470.112,10.70149
6475.897,10.28534
6481.684,10.01863
6487.469,10.0564
6493.254,10.22795
6499.04,10.4074
6504.825,10.56094
6510.61,10.69252
6516.396,10.78399
6522.182,10.86245
6527.967,10.92862
6533.753,10.98707
6539.538,11.03837
6545.324,11.08541
6551.109,11.12397
6556.895,11.16319
6562.68,11.20401
6568.466,11.26283
6574.251,11.31898
6580.037,11.3604
6585.822,11.39078
6591.607,11.40711
6597.393,11.41355
6603.179,11.416
6608.964,11.42132
6614.75,11.42556
6620.535,11.41663
6626.32,11.4033
6632.106,11.3941
6637.892,11.37491
6643.677,11.34785
6649.463,11.32169
6655.248,11.2919
6661.034,11.2512
6666.819,11.2105
6672.604,11.17318
6678.39,11.133
6684.176,11.0824
6689.961,11.03115
6695.747,10.97493
6701.532,10.91268
6707.317,10.83955
6713.103,10.76542
6718.889,10.68531
6724.674,10.61941
6730.459,10.56249
6736.245,10.50253
6742.03,10.43719
6747.816,10.3781
6753.602,10.31893
6759.387,10.26154
6765.173,10.18895
6770.958,10.11291
6776.743,10.01742
6782.529,9.898265
6788.314,9.77126
6794.1,9.623275
6799.886,9.478595
6805.671,9.336101
6811.457,9.213465
6817.242,9.088861
6823.027,8.92764
6828.813,8.765899
6834.599,8.636772
6840.384,8.564054
6846.169,8.517076
6851.955,8.466455
6857.74,8.395382
6863.526,8.341086
6869.312,8.287801
6875.097,8.213525
6880.882,8.128886
6886.668,8.039347
6892.453,7.946786
6898.239,7.866994
6904.024,7.814654
6909.81,7.766158
6915.596,7.704947
6921.381,7.614045
6927.166,7.515428
6932.952,7.383149
6938.737,7.232217
6944.523,7.085917
6950.309,7.003955
6956.094,6.986573
6961.879,7.005927
6967.665,7.028104
6973.45,7.04184
6979.236,7.03394
6985.021,7.030808
6990.807,6.975067
6996.592,6.928089
7002.378,6.860569
7008.163,6.785815
7013.949,6.717237
7019.734,6.65611
7025.52,6.646399
7031.305,6.686503
7037.091,6.732767
7042.876,6.745126
7048.662,6.665194
7054.447,6.496875
7060.232,6.306386
7066.019,6.303745
7071.804,6.549785
7077.589,6.857905
7083.375,7.08113
7089.16,7.185463
7094.946,7.250847
7100.731,7.34181
7106.517,7.487599
7112.302,7.625297
7118.088,7.804557
7123.873,7.906514
7129.659,7.940506
7135.444,7.885943
7141.229,7.764561
7147.015,7.597723
7152.801,7.344122
7158.586,6.889603
7164.372,6.222576
7170.157,5.730315
7175.942,5.778161
7181.729,6.218844
7187.514,6.708581
7193.299,7.167124
7199.085,7.563196
7204.87,7.966945
7210.655,8.26881
7216.441,8.526175
7222.227,8.81635
7228.012,9.170809
7233.798,9.504038
7239.583,9.802015
7245.369,10.08126
7251.154,10.38291
7256.939,10.65576
7262.725,10.94024
7268.511,11.19771
7274.296,11.47562
7280.082,11.72147
7285.867,11.97137
7291.652,12.2028
7297.438,12.43124
7303.224,12.65252
7309.009,12.89786
7314.794,13.12013
7320.58,13.31322
7326.365,13.52367
7332.151,13.63485
7337.937,13.80606
7343.722,13.90021
7349.508,13.97056
7355.293,14.07192
7361.079,14.1253
7366.864,14.20549
7372.649,14.23796
7378.435,14.30382
7384.221,14.34255
7390.006,14.38396
7395.792,14.41946
7401.577,14.44645
7407.362,14.4786
7413.148,14.50494
7418.934,14.53197
7424.719,14.53898
7430.504,14.56621
7436.29,14.581
7442.075,14.59755
7447.861,14.62346
7453.646,14.64998
7459.432,14.66555
7465.218,14.68621
7471.003,14.69098
7476.788,14.69426
7482.574,14.70955
7488.359,14.69375
7494.145,14.69277
7499.931,14.68348
7505.716,14.67182
7511.501,14.67929
7517.287,14.67142
7523.072,14.67283
7528.858,14.66608
7534.644,14.65086
7540.429,14.63553
7546.214,14.61961
7552.0,14.60798
7557.785,14.58327
7563.571,14.56599
7569.356,14.54759
7575.142,14.5311
7580.927,14.5154
7586.713,14.50471
7592.498,14.47537
7598.284,14.45166
7604.069,14.41033
7609.854,14.3902
7615.641,14.3527
7621.426,14.31754
7627.211,14.28706
7632.997,14.23989
7638.782,14.198
7644.568,14.16101
7650.354,14.12468
7656.139,14.08782
7661.924,14.06466
7667.71,14.03796
7673.495,14.00663
7679.281,13.98793
7685.066,13.96837
7690.852,13.94561
7696.637,13.93612
7702.423,13.91499
7708.208,13.88892
7713.994,13.87328
7719.779,13.83529
7725.564,13.81705
7731.35,13.80119
7737.136,13.77847
7742.921,13.76937
7748.707,13.75233
7754.492,13.7217
7760.277,13.67879
7766.063,13.65398
7771.849,13.61805
7777.634,13.59762
7783.42,13.59777
7789.205,13.58549
7794.991,13.57545
7800.776,13.55623
7806.562,13.52318
7812.347,13.48978
7818.133,13.48042
7823.918,13.43912
7829.704,13.41348
7835.489,13.37507
7841.274,13.35255
7847.06,13.30646
7852.846,13.25938
7858.631,13.20984
7864.417,13.17021
7870.202,13.11843
7875.987,13.05418
7881.773,12.99658
7887.559,12.93742
7893.344,12.87415
7899.13,12.79097
7904.915,12.74206
7910.7,12.6811
7916.486,12.62112
7922.271,12.53482
7928.057,12.47483
7933.843,12.39007
7939.628,12.30151
7945.414,12.22056
7951.199,12.13132
7956.984,12.03475
7962.77,11.94284
7968.556,11.83925
7974.341,11.73619
7980.126,11.62573
7985.912,11.53504
7991.697,11.41885
7997.483,11.30918
8003.269,11.19275
8009.054,11.06762
8014.839,10.9378
8020.625,10.81564
8026.41,10.68219
8032.196,10.54179
8037.981,10.39492
8043.767,10.25898
8049.553,10.10362
8055.338,9.945143
8061.124,9.787644
8066.909,9.62591
8072.694,9.465972
8078.48,9.298646
8084.266,9.131944
8090.051,8.962595
8095.836,8.789073
8101.622,8.609847
8107.407,8.423124
8113.192,8.236358
8118.979,8.028055
8124.764,7.823632
8130.55,7.618079
8136.335,7.419729
8142.12,7.23265
8147.906,7.017178
8153.691,6.81965
8159.477,6.600772
8165.263,6.394142
8171.048,6.181396
8176.833,5.990086
8182.619,5.810057
8188.404,5.644845
8194.189,5.498645
8199.976,5.410599
8205.761,5.309893
8211.546,5.250639
8217.332,5.21529
8223.117,5.215162
8228.902,5.233828
8234.688,5.248153
8240.474,5.286904
8246.259,5.302063
8252.045,5.331669
8257.83,5.371578
8263.616,5.434466
8269.401,5.51502
8275.187,5.629004
8280.973,5.726284
8286.758,5.868397
8292.543,6.010399
8298.329,6.165468
8304.114,6.3145
8309.899,6.458757
8315.686,6.600491
8321.471,6.754145
8327.256,6.886016
8333.042,7.028316
8338.827,7.203702
8344.612,7.375465
8350.398,7.579258
8356.184,7.791579
8361.969,8.00923
8367.755,8.214441
8373.54,8.417463
8379.325,8.59464
8385.111,8.761764
8390.896,8.895998
8396.683,8.98822
8402.468,9.036359
8408.253,9.025062
8414.039,8.983235
8419.824,8.921601
8425.609,8.934281
8431.396,8.987105
8437.181,9.131742
8442.966,9.324839
8448.752,9.548141
8454.537,9.770406
8460.322,9.934282
8466.108,10.09533
8471.894,10.25066
8477.679,10.41714
8483.465,10.62583
8489.25,10.80381
8495.035,10.96971
8500.821,11.08133
8506.606,11.15216
8512.392,11.17352
8518.178,11.22629
8523.963,11.30454
8529.748,11.36587
8535.534,11.37643
8541.319,11.32241
8547.105,11.172
8552.891,10.94298
8558.676,10.68667
8564.462,10.50541
8570.247,10.62582
8576.032,10.88842
8581.818,11.17581
8587.604,11.50751
8593.389,11.858
8599.175,12.23852
8604.96,12.57518
8610.745,12.90791
8616.531,13.1893
8622.316,13.46897
8628.102,13.70501
8633.888,13.9101
8639.673,14.10012
8645.458,14.27179
8651.244,14.4193
8657.029,14.56051
8662.814,14.7014
8668.601,14.79975
8674.386,14.93022
8680.172,15.03947
8685.957,15.15869
8691.742,15.27834
8697.528,15.41209
8703.313,15.53753
8709.099,15.65023
8714.885,15.76297
8720.67,15.89608
8726.455,16.02855
8732.241,16.16076
8738.026,16.27509
8743.812,16.40022
8749.598,16.51493
8755.383,16.6355
8761.168,16.72728
8766.954,16.81163
8772.739,16.91257
8778.524,16.97206
8784.311,17.04118
8790.096,17.0966
8795.881,17.14508
8801.667,17.20255
8807.452,17.23093
8813.237,17.26854
8819.023,17.29931
8824.809,17.33553
8830.595,17.35161
8836.38,17.36809
8842.165,17.39875
8847.951,17.3964
8853.736,17.42244
8859.521,17.43304
8865.308,17.44118
8871.093,17.45784
8876.878,17.45345
8882.664,17.46856
8888.449,17.46025
8894.234,17.4697
8900.021,17.46227
8905.806,17.45941
8911.591,17.42663
8917.377,17.42721
8923.162,17.42349
8928.947,17.41705
8934.733,17.42472
8940.519,17.42106
8946.304,17.41557
8952.09,17.41311
8957.875,17.40861
8963.661,17.41784
8969.446,17.43931
8975.231,17.43432
8981.018,17.4612
8986.803,17.45713
8992.588,17.48251
8998.374,17.48906
9004.159,17.51845
9009.944,17.50956
9015.73,17.54711
9021.516,17.54375
9027.301,17.57989
9033.087,17.5677
9038.872,17.59407
9044.657,17.59412
9050.443,17.59608
9056.229,17.63169
9062.014,17.63486
9067.8,17.65359
9073.585,17.65275
9079.37,17.65218
9085.156,17.66874
9090.941,17.66537
9096.727,17.6862
9102.513,17.67068
9108.298,17.7201
9114.084,17.68785
9119.869,17.6961
9125.654,17.69784
9131.44,17.68465
9137.226,17.68955
9143.011,17.67572
9148.797,17.6592
9154.582,17.66049
9160.367,17.65931
9166.153,17.6357
9171.938,17.64857
9177.724,17.6428
9183.51,17.62566
9189.295,17.60317
9195.08,17.59694
9200.866,17.5863
9206.651,17.55673
9212.437,17.57729
9218.223,17.57196
9224.008,17.56237
9229.793,17.5686
9235.579,17.54027
9241.364,17.5489
9247.15,17.513
9252.936,17.51374
9258.721,17.53971
9264.507,17.49565
9270.292,17.50334
9276.077,17.47585
9281.863,17.4785
9287.648,17.45221
9293.434,17.46388
9299.22,17.47079
9305.005,17.47371
9310.79,17.47733
9316.576,17.50046
9322.361,17.51961
9328.146,17.49069
9333.933,17.51137
9339.718,17.49733
9345.503,17.48158
9351.289,17.48875
9357.074,17.4635
9362.859,17.45746
9368.646,17.42626
9374.431,17.40787
9380.217,17.40699
9386.002,17.40188
9391.787,17.3592
9397.573,17.34913
9403.358,17.31748
9409.144,17.2926
9414.93,17.26833
9420.715,17.23876
9426.5,17.23901
9432.286,17.19911
9438.071,17.183
9443.856,17.13979
9449.643,17.11282
9455.428,17.06323
9461.213,17.0174
9466.999,17.01222
9472.784,16.98666
9478.569,16.96693
9484.355,16.96621
9490.141,16.92782
9495.926,16.92138
9501.712,16.92665
9507.497,16.8876
9513.282,16.88779
9519.068,16.86161
9524.854,16.8424
9530.64,16.82537
9536.425,16.81146
9542.21,16.77232
9547.996,16.75496
9553.781,16.73018
9559.566,16.7106
9565.353,16.67677
9571.138,16.66886
9576.923,16.6651
9582.709,16.60727
9588.494,16.59634
9594.279,16.59924
9600.065,16.58528
9605.851,16.61298
9611.636,16.65853
9617.422,16.67549
9623.207,16.72117
9628.992,16.78367
9634.778,16.79716
9640.563,16.83924
9646.349,16.86976
9652.135,16.93193
9657.92,17.01074
9663.706,17.04101
9669.491,17.10961
9675.276,17.14627
9681.063,17.19241
9686.848,17.24065
9692.633,17.28535
9698.419,17.34181
9704.204,17.38282
9709.989,17.42759
9715.775,17.49958
9721.561,17.53234
9727.346,17.62021
9733.132,17.64359
9738.917,17.68496
9744.702,17.70623
9750.488,17.75732
9756.273,17.82203
9762.059,17.84218
9767.845,17.85499
9773.63,17.86865
9779.415,17.87244
9785.201,17.88743
9790.986,17.88072
9796.771,17.86504
9802.558,17.89279
9808.343,17.87209
9814.129,17.89308
9819.914,17.88239
9825.699,17.92358
9831.485,17.93975
9837.271,17.93994
9843.056,17.97798
9848.842,18.03249
9854.627,18.08397
9860.412,18.15821
9866.198,18.17281
9871.983,18.25368
9877.769,18.30058
9883.555,18.31458
9889.34,18.3802
9895.125,18.44357
9900.911,18.49243
9906.696,18.54697
9912.481,18.58064
9918.268,18.61507
9924.053,18.63992
9929.838,18.66665
9935.624,18.73051
9941.409,18.75507
9947.195,18.7634
9952.98,18.80149
9958.766,18.85192
9964.552,18.8822
9970.337,18.90005
9976.122,18.93333
9981.908,18.94781
9987.693,18.97359
9993.479,19.00225
9999.265,18.99396
10005.05,19.04696
10010.83,19.06757
10016.62,19.07001
10022.41,19.11034
10028.19,19.11092
10033.98,19.15059
10039.76,19.18264
10045.55,19.20329
10051.33,19.22618
10057.12,19.2657
10062.9,19.2941
10068.69,19.2856
10074.48,19.30186
10080.26,19.29084
10086.05,19.35984
10091.83,19.34101
10097.62,19.3189
10103.4,19.36057
10109.19,19.31155
10114.97,19.3742
10120.76,19.38784
10126.54,19.42603
10132.33,19.42426
10138.12,19.40662
10143.9,19.456
10149.69,19.40627
10155.47,19.41841
10161.26,19.45631
10167.04,19.4473
10172.83,19.47467
10178.61,19.46361
10184.4,19.48802
10190.19,19.45132
10195.97,19.46949
10201.76,19.45912
10207.54,19.48755
10213.33,19.49716
10219.11,19.49109
10224.9,19.50266
10230.68,19.49016
10236.47,19.50157
10242.25,19.46825
10248.04,19.50621
10253.83,19.50881
10259.61,19.5063
10265.4,19.49775
10271.18,19.46249
10276.97,19.46272
10282.75,19.43832
10288.54,19.4841
10294.32,19.4326
10300.11,19.48616
10305.9,19.49422
10311.68,19.4756
10317.47,19.41225
10323.25,19.48625
10329.04,19.42403
10334.82,19.44385
10340.61,19.44497
10346.39,19.44196
10352.18,19.4482
10357.96,19.40942
10363.75,19.46315
10369.54,19.39967
10375.32,19.42644
10381.11,19.36727
10386.89,19.3914
10392.68,19.43671
10398.46,19.4015
10404.25,19.38276
10410.03,19.36338
10415.82,19.37873
10421.61,19.37848
10427.39,19.32819
10433.18,19.29544
10438.96,19.28355
10444.75,19.29963
10450.53,19.25275
10456.32,19.27318
10462.1,19.20783
10467.89,19.24263
10473.67,19.17623
10479.46,19.17819
10485.25,19.18025
10491.03,19.09002
10496.82,19.00408
10502.6,18.95291
10508.39,18.93872
10514.17,18.92764
10519.96,18.85351
10525.74,18.78082
10531.53,18.69345
10537.32,18.70133
10543.1,18.66479
10548.89,18.5519
10554.67,18.49113
10560.46,18.38069
10566.24,18.29581
10572.03,18.24656
10577.81,18.1302
10583.6,18.01569
10589.38,17.93217
10595.17,17.86334
10600.96,17.70102
10606.74,17.58047
10612.53,17.45874
10618.31,17.30166
10624.1,17.16587
10629.88,17.00108
10635.67,16.86914
10641.45,16.68418
10647.24,16.56862
10653.03,16.3915
10658.81,16.28001
10664.6,16.10896
10670.38,15.98294
10676.17,15.81956
10681.95,15.7184
10687.74,15.53641
10693.52,15.52995
10699.31,15.41684
10705.09,15.37007
10710.88,15.31623
10716.67,15.31484
10722.45,15.2906
10728.24,15.29445
10734.02,15.33098
10739.81,15.30746
10745.59,15.41167
10751.38,15.46369
10757.16,15.48272
10762.95,15.56572
10768.74,15.64802
10774.52,15.73853
10780.31,15.85928
10786.09,15.93899
10791.88,16.04884
10797.66,16.16079
10803.45,16.33446
10809.23,16.32351
10815.02,16.50167
10820.8,16.58646
10826.59,16.67801
10832.38,16.88761
10838.16,17.01176
10843.95,17.17221
10849.73,17.31466
10855.52,17.32738
10861.3,17.52445
10867.09,17.60061
10872.87,17.77431
10878.66,17.86139
10884.45,17.89921
10890.23,17.93186
10896.02,18.17856
10901.8,18.26571
10907.59,18.32281
10913.37,18.43148
10919.16,18.53769
10924.94,18.70292
10930.73,18.69904
10936.51,18.80267
10942.3,18.9054
10948.09,18.98609
10953.87,19.0751
10959.66,19.17789
10965.44,19.23465
10971.23,19.24374
10977.01,19.37828
10982.8,19.44696
10988.58,19.49681
10994.37,19.58308
11000.16,19.59935
11005.94,19.58762
11011.73,19.64821
11017.51,19.67259
11023.3,19.83702
11029.08,19.7762
11034.87,19.8571
11040.65,19.9057
11046.44,19.88058
11052.22,19.91657
11058.01,19.95254
11063.79,19.98813
11069.58,19.98304
11075.37,20.03327
11081.15,20.07461
11086.94,20.07183
11092.72,20.0436
11098.51,20.1002
11104.29,20.06608
11110.08,20.11155
11115.87,20.08198
11121.65,20.15758
11127.44,20.08453
11133.22,20.17954
11139.01,20.18443
11144.79,20.2467
11150.58,20.25805
11156.36,20.20541
11162.15,20.23845
11167.93,20.28832
11173.72,20.40385
11179.5,20.34202
11185.29,20.38108
11191.08,20.4384
11196.86,20.44662
11202.65,20.52788
11208.43,20.60219
11214.22,20.6246
11220.0,20.70161
11225.79,20.67176
11231.58,20.78109
11237.36,20.731
11243.15,20.77736
11248.93,20.67413
11254.72,20.86219
11260.5,20.92671
11266.29,20.90171
11272.07,20.95743
11277.86,20.87546
11283.64,21.05768
11289.43,20.94113
11295.21,20.99957
11301.0,21.01819
11306.79,21.02962
11312.57,21.12159
11318.36,21.01185
11324.14,21.05722
11329.93,21.18941
11335.71,21.15199
11341.5,21.17334
11347.28,21.15935
11353.07,21.19255
11358.86,21.20568
11364.64,21.22879
11370.43,21.18306
11376.21,21.15105
11382.0,21.20013
11387.78,21.30773
11393.57,21.285
11399.35,21.22876
11405.14,21.3045
11410.92,21.21781
11416.71,21.30454
11422.5,21.35609
11428.28,21.36268
11434.07,21.39532
11439.85,21.41776
11445.64,21.44598
11451.42,21.3599
11457.21,21.44396
11462.99,21.43499
11468.78,21.48127
11474.57,21.4257
11480.35,21.48155
11486.14,21.43178
11491.92,21.50609
11497.71,21.56639
11503.49,21.55047
11509.28,21.55505
11515.06,21.60275
11520.85,21.56936
11526.63,21.50887
11532.42,21.65042
11538.21,21.67167
11543.99,21.71715
11549.78,21.71391
11555.56,21.65657
11561.35,21.82882
11567.13,21.66831
11572.92,21.7424
11578.7,21.78497
11584.49,21.63018
11590.28,21.76385
11596.06,21.78641
11601.85,21.81955
11607.63,21.8299
11613.42,21.73041
11619.2,21.80198
11624.99,21.78098
11630.77,21.84667
11636.56,21.88394
11642.34,21.92484
11648.13,21.87766
11653.92,21.85068
11659.7,21.80184
11665.49,21.89068
11671.27,21.85725
11677.06,21.82817
11682.84,21.92641
11688.63,21.85173
11694.41,21.80239
11700.2,21.8643
11705.99,21.83447
11711.77,21.82364
11717.56,21.82773
11723.34,21.82321
11729.13,21.89158
11734.91,22.11336
11740.7,21.85596
11746.48,21.75131
11752.27,21.79512
11758.05,21.84458
11763.84,21.7685
11769.63,21.86282
11775.41,21.78336
11781.2,21.78951
11786.98,21.78064
11792.77,21.76719
11798.55,21.81774
11804.34,21.77438
11810.12,21.71397
11815.91,21.85382
11821.7,21.8646
11827.48,21.83321
11833.27,21.84143
11839.05,21.79056
11844.84,21.83397
11850.62,21.92534
11856.41,21.83322
11862.19,21.86492
11867.98,21.83244
11873.76,21.91177
11879.55,21.88756
11885.34,21.84989
11891.12,21.89901
11896.91,21.96646
11902.69,22.00549
11908.48,21.91287
11914.26,21.92624
11920.05,21.91249
11925.83,21.92089
11931.62,21.91938
11937.41,22.02148
11943.19,21.90888
11948.98,21.77924
11954.76,22.06822
11960.55,22.01622
11966.33,21.85221
11972.12,21.88871
11977.9,21.95667
11983.69,21.95357
11989.47,22.02895
11995.26,21.90889
11999.12,21.80743