File: Data/NIR/H0007HDPE_2.csv
Wavenumber,Intensity
3999.706,3.073153
4005.491,3.07783
4011.277,3.070953
4017.062,3.060106
4022.848,3.052329
4028.633,3.061913
4034.419,3.067312
4040.204,3.062838
4045.99,3.06231
4051.775,3.065255
4057.561,3.066587
4063.346,3.07267
4069.132,3.066149
4074.917,3.065518
4080.703,3.063013
4086.488,3.066244
4092.274,3.057303
4098.059,3.059893
4103.845,3.06708
4109.63,3.064488
4115.416,3.066806
4121.201,3.070216
4126.987,3.067892
4132.772,3.071827
4138.558,3.071999
4144.343,3.0737
4150.129,3.074339
4155.914,3.07724
4161.7,3.081506
4167.485,3.080902
4173.271,3.085394
4179.056,3.088714
4184.842,3.094186
4190.627,3.09875
4196.413,3.10561
4202.198,3.123875
4207.983,3.128044
4213.769,3.135707
4219.555,3.142173
4225.34,3.15168
4231.125,3.158094
4236.911,3.16155
4242.697,3.156551
4248.482,3.14402
4254.268,3.152333
4260.053,3.163275
4265.838,3.188716
4271.624,3.193453
4277.41,3.200111
4283.195,3.207384
4288.98,3.214665
4294.766,3.219051
4300.552,3.218049
4306.337,3.204247
4312.123,3.189637
4317.908,3.168112
4323.693,3.164892
4329.479,3.174157
4335.265,3.184211
4341.05,3.189561
4346.835,3.2032
4352.621,3.219084
4358.407,3.232831
4364.192,3.240461
4369.978,3.250508
4375.763,3.261704
4381.548,3.279774
4387.334,3.294785
4393.12,3.314891
4398.905,3.346075
4404.69,3.380785
4410.476,3.423712
4416.262,3.470412
4422.047,3.505285
4427.833,3.541687
4433.618,3.572952
4439.403,3.60296
4445.189,3.64169
4450.975,3.69687
4456.76,3.747392
4462.545,3.791903
4468.331,3.838748
4474.116,3.874538
4479.902,3.923182
4485.688,3.963272
4491.473,4.00743
4497.258,4.056508
4503.044,4.105634
4508.83,4.158552
4514.615,4.220875
4520.4,4.27885
4526.186,4.337262
4531.971,4.396389
4537.757,4.453959
4543.542,4.51592
4549.328,4.573461
4555.113,4.638622
4560.899,4.707332
4566.685,4.768707
4572.47,4.813026
4578.255,4.857861
4584.041,4.894797
4589.826,4.926881
4595.612,4.951211
4601.397,4.977264
4607.183,4.997828
4612.968,5.013718
4618.754,5.040825
4624.539,5.068205
4630.325,5.086099
4636.11,5.099395
4641.896,5.104802
4647.681,5.101658
4653.467,5.079929
4659.252,5.026038
4665.038,4.958311
4670.823,4.966652
4676.609,5.054392
4682.394,5.132846
4688.18,5.175062
4693.965,5.189303
4699.751,5.196881
4705.536,5.199934
4711.322,5.184474
4717.107,5.159757
4722.893,5.118662
4728.678,5.081172
4734.464,5.063274
4740.249,5.050448
4746.035,5.029712
4751.82,5.00705
4757.605,4.978513
4763.391,4.945621
4769.177,4.894704
4774.962,4.835531
4780.748,4.805174
4786.533,4.791843
4792.319,4.779737
4798.104,4.764313
4803.89,4.735257
4809.675,4.697134
4815.46,4.655693
4821.246,4.609065
4827.032,4.586735
4832.817,4.557149
4838.603,4.530383
4844.388,4.480427
4850.174,4.433781
4855.959,4.392985
4861.745,4.358634
4867.53,4.33887
4873.315,4.343566
4879.101,4.359705
4884.887,4.373632
4890.672,4.398921
4896.458,4.41045
4902.243,4.424343
4908.028,4.432417
4913.814,4.439588
4919.6,4.43693
4925.385,4.43578
4931.17,4.434716
4936.956,4.433398
4942.742,4.418865
4948.527,4.386962
4954.313,4.310085
4960.098,4.2162
4965.883,4.196042
4971.669,4.236012
4977.455,4.257913
4983.24,4.284049
4989.025,4.318189
4994.811,4.364209
5000.597,4.419226
5006.382,4.461858
5012.167,4.47158
5017.953,4.473886
5023.738,4.488033
5029.524,4.513806
5035.31,4.524035
5041.095,4.528698
5046.88,4.532852
5052.666,4.518855
5058.451,4.493081
5064.237,4.477594
5070.022,4.483127
5075.808,4.484358
5081.593,4.479291
5087.379,4.470208
5093.165,4.462379
5098.95,4.456676
5104.735,4.462184
5110.521,4.482381
5116.307,4.496176
5122.092,4.5051
5127.877,4.519659
5133.663,4.528816
5139.448,4.518617
5145.234,4.504788
5151.02,4.479056
5156.805,4.461491
5162.59,4.460602
5168.376,4.465287
5174.161,4.463506
5179.947,4.454447
5185.732,4.454956
5191.518,4.45129
5197.303,4.472915
5203.089,4.472508
5208.874,4.482194
5214.66,4.462691
5220.445,4.47159
5226.231,4.491641
5232.016,4.494679
5237.802,4.495057
5243.587,4.524148
5249.373,4.531148
5255.158,4.539231
5260.944,4.542562
5266.729,4.540855
5272.515,4.526882
5278.3,4.527626
5284.086,4.542005
5289.871,4.539618
5295.657,4.518613
5301.442,4.493059
5307.228,4.4779
5313.013,4.491634
5318.799,4.561072
5324.584,4.596245
5330.37,4.601091
5336.155,4.587451
5341.94,4.54166
5347.726,4.487927
5353.512,4.437354
5359.297,4.379931
5365.083,4.347056
5370.868,4.303693
5376.654,4.293134
5382.439,4.275305
5388.225,4.258685
5394.01,4.23784
5399.796,4.189116
5405.581,4.153234
5411.367,4.105875
5417.152,4.031945
5422.938,4.006634
5428.723,4.005215
5434.509,3.994336
5440.294,3.989779
5446.08,3.978792
5451.865,3.958379
5457.65,3.952131
5463.436,3.943392
5469.222,3.931209
5475.007,3.920497
5480.792,3.881222
5486.578,3.858536
5492.363,3.851936
5498.149,3.855674
5503.935,3.867577
5509.72,3.879081
5515.505,3.892379
5521.291,3.899335
5527.077,3.892868
5532.862,3.891841
5538.647,3.887771
5544.433,3.872785
5550.219,3.8658
5556.004,3.86895
5561.79,3.886165
5567.575,3.908204
5573.36,3.945905
5579.146,3.992715
5584.932,4.027233
5590.717,4.034581
5596.502,4.024083
5602.288,3.995424
5608.073,3.954437
5613.859,3.920992
5619.645,3.880007
5625.43,3.845288
5631.215,3.818869
5637.001,3.783273
5642.786,3.732611
5648.572,3.653587
5654.357,3.558394
5660.143,3.498505
5665.929,3.495199
5671.714,3.528632
5677.5,3.578709
5683.285,3.61875
5689.07,3.652002
5694.856,3.696114
5700.642,3.759563
5706.427,3.8167
5712.212,3.846982
5717.998,3.834632
5723.783,3.754151
5729.569,3.63052
5735.354,3.60943
5741.14,3.593233
5746.925,3.546253
5752.711,3.505094
5758.496,3.468894
5764.282,3.444238
5770.067,3.420021
5775.853,3.414306
5781.638,3.424266
5787.424,3.443105
5793.209,3.460444
5798.995,3.472495
5804.78,3.492566
5810.566,3.513167
5816.352,3.539021
5822.137,3.568615
5827.922,3.606413
5833.708,3.654807
5839.493,3.707469
5845.279,3.780061
5851.064,3.897446
5856.85,4.06334
5862.635,4.290174
5868.421,4.557901
5874.206,4.828926
5879.992,5.086669
5885.777,5.317892
5891.563,5.49822
5897.348,5.641309
5903.134,5.764271
5908.919,5.924045
5914.705,6.102558
5920.49,6.270014
5926.276,6.434299
5932.061,6.589879
5937.847,6.736586
5943.632,6.88126
5949.418,7.00611
5955.203,7.154061
5960.989,7.330151
5966.774,7.550713
5972.56,7.769132
5978.345,7.973516
5984.131,8.164165
5989.916,8.337136
5995.702,8.500292
6001.487,8.651729
6007.272,8.809194
6013.058,8.962109
6018.844,9.110735
6024.629,9.250622
6030.415,9.375107
6036.2,9.488974
6041.985,9.587009
6047.771,9.682484
6053.557,9.776292
6059.342,9.855507
6065.128,9.924736
6070.913,9.996014
6076.698,10.0525
6082.484,10.11366
6088.27,10.16816
6094.055,10.21001
6099.841,10.24397
6105.626,10.2709
6111.412,10.30926
6117.197,10.35493
6122.982,10.39999
6128.768,10.4453
6134.554,10.47943
6140.339,10.52012
6146.125,10.55614
6151.91,10.58781
6157.695,10.61922
6163.481,10.65754
6169.267,10.69788
6175.052,10.74134
6180.837,10.77126
6186.623,10.79398
6192.408,10.81191
6198.194,10.83631
6203.979,10.85709
6209.765,10.88156
6215.551,10.90773
6221.336,10.92462
6227.121,10.94414
6232.907,10.96412
6238.692,10.97185
6244.478,10.97574
6250.264,10.97693
6256.049,10.98048
6261.834,10.98597
6267.62,10.99427
6273.405,10.99883
6279.191,11.0036
6284.977,11.00555
6290.762,11.00989
6296.547,11.00899
6302.333,11.02446
6308.118,11.02808
6313.904,11.03007
6319.689,11.01967
6325.475,11.00052
6331.26,10.97871
6337.046,10.95086
6342.831,10.9282
6348.617,10.89281
6354.402,10.84769
6360.188,10.8157
6365.974,10.75634
6371.759,10.67663
6377.544,10.61938
6383.33,10.59354
6389.115,10.57112
6394.901,10.55307
6400.687,10.49853
6406.472,10.41904
6412.257,10.3244
6418.043,10.24841
6423.828,10.21576
6429.614,10.1892
6435.399,10.15047
6441.185,10.06565
6446.97,9.961356
6452.756,9.846645
6458.541,9.709327
6464.327,9.517835
6470.112,9.212492
6475.897,8.844174
6481.684,8.616574
6487.469,8.645685
6493.254,8.785216
6499.04,8.938956
6504.825,9.062442
6510.61,9.169704
6516.396,9.248824
6522.182,9.311871
6527.967,9.370245
6533.753,9.420611
6539.538,9.456684
6545.324,9.49939
6551.109,9.531442
6556.895,9.558431
6562.68,9.590232
6568.466,9.639691
6574.251,9.688101
6580.037,9.725582
6585.822,9.742142
6591.607,9.756608
6597.393,9.760953
6603.179,9.764261
6608.964,9.759391
6614.75,9.753754
6620.535,9.745295
6626.32,9.738349
6632.106,9.718039
6637.892,9.703621
6643.677,9.675771
6649.463,9.647985
6655.248,9.611765
6661.034,9.580007
6666.819,9.527653
6672.604,9.504969
6678.39,9.459957
6684.176,9.417851
6689.961,9.36649
6695.747,9.314344
6701.532,9.254948
6707.317,9.191738
6713.103,9.125789
6718.889,9.053385
6724.674,8.996807
6730.459,8.938483
6736.245,8.891117
6742.03,8.832735
6747.816,8.775856
6753.602,8.72134
6759.387,8.667236
6765.173,8.611291
6770.958,8.542975
6776.743,8.456811
6782.529,8.350602
6788.314,8.235937
6794.1,8.117381
6799.886,7.99306
6805.671,7.869392
6811.457,7.766839
6817.242,7.647389
6823.027,7.518482
6828.813,7.381283
6834.599,7.269568
6840.384,7.209207
6846.169,7.161884
6851.955,7.117682
6857.74,7.066503
6863.526,7.013366
6869.312,6.957608
6875.097,6.895259
6880.882,6.834792
6886.668,6.749406
6892.453,6.670918
6898.239,6.599561
6904.024,6.553788
6909.81,6.515003
6915.596,6.461957
6921.381,6.390477
6927.166,6.305056
6932.952,6.200209
6938.737,6.072333
6944.523,5.962045
6950.309,5.894279
6956.094,5.874286
6961.879,5.883538
6967.665,5.894595
6973.45,5.911398
6979.236,5.903442
6985.021,5.890938
6990.807,5.858159
6996.592,5.809972
7002.378,5.767524
7008.163,5.697274
7013.949,5.641324
7019.734,5.601276
7025.52,5.594695
7031.305,5.619007
7037.091,5.647691
7042.876,5.657173
7048.662,5.593439
7054.447,5.464734
7060.232,5.312788
7066.019,5.322231
7071.804,5.50189
7077.589,5.724771
7083.375,5.895329
7089.16,5.972461
7094.946,6.04385
7100.731,6.10504
7106.517,6.239133
7112.302,6.350183
7118.088,6.484979
7123.873,6.557745
7129.659,6.582051
7135.444,6.533212
7141.229,6.441138
7147.015,6.304711
7152.801,6.087382
7158.586,5.730237
7164.372,5.232098
7170.157,4.879365
7175.942,4.907611
7181.729,5.243196
7187.514,5.589135
7193.299,5.939199
7199.085,6.244296
7204.87,6.549324
7210.655,6.799904
7216.441,7.012085
7222.227,7.249027
7228.012,7.530847
7233.798,7.820675
7239.583,8.035189
7245.369,8.284244
7251.154,8.519886
7256.939,8.745424
7262.725,8.994591
7268.511,9.210485
7274.296,9.443404
7280.082,9.648125
7285.867,9.866154
7291.652,10.05707
7297.438,10.26717
7303.224,10.4529
7309.009,10.68068
7314.794,10.87023
7320.58,11.03748
7326.365,11.21515
7332.151,11.3213
7337.937,11.43362
7343.722,11.55653
7349.508,11.61828
7355.293,11.70913
7361.079,11.76817
7366.864,11.83843
7372.649,11.88754
7378.435,11.95211
7384.221,12.00687
7390.006,12.04243
7395.792,12.06459
7401.577,12.0956
7407.362,12.1274
7413.148,12.14827
7418.934,12.17628
7424.719,12.19292
7430.504,12.20227
7436.29,12.2126
7442.075,12.2241
7447.861,12.24992
7453.646,12.26652
7459.432,12.2845
7465.218,12.29736
7471.003,12.30547
7476.788,12.30456
7482.574,12.30883
7488.359,12.3032
7494.145,12.30198
7499.931,12.28532
7505.716,12.28603
7511.501,12.27464
7517.287,12.26386
7523.072,12.26178
7528.858,12.24543
7534.644,12.23723
7540.429,12.21902
7546.214,12.1953
7552.0,12.17713
7557.785,12.16341
7563.571,12.14317
7569.356,12.11895
7575.142,12.10457
7580.927,12.08484
7586.713,12.06587
7592.498,12.03989
7598.284,12.01502
7604.069,11.99086
7609.854,11.96594
7615.641,11.92664
7621.426,11.89162
7627.211,11.85433
7632.997,11.81232
7638.782,11.77945
7644.568,11.74541
7650.354,11.71022
7656.139,11.67328
7661.924,11.64578
7667.71,11.62008
7673.495,11.58927
7679.281,11.56754
7685.066,11.55032
7690.852,11.53225
7696.637,11.51261
7702.423,11.48627
7708.208,11.47155
7713.994,11.43958
7719.779,11.42333
7725.564,11.40729
7731.35,11.36773
7737.136,11.35891
7742.921,11.34944
7748.707,11.32325
7754.492,11.29988
7760.277,11.2575
7766.063,11.23763
7771.849,11.20452
7777.634,11.18259
7783.42,11.1796
7789.205,11.15744
7794.991,11.1467
7800.776,11.11983
7806.562,11.08508
7812.347,11.06813
7818.133,11.04074
7823.918,11.01393
7829.704,10.97451
7835.489,10.95042
7841.274,10.91937
7847.06,10.88109
7852.846,10.84509
7858.631,10.79446
7864.417,10.74055
7870.202,10.70006
7875.987,10.64461
7881.773,10.59252
7887.559,10.54212
7893.344,10.49189
7899.13,10.43272
7904.915,10.36688
7910.7,10.30925
7916.486,10.24351
7922.271,10.18913
7928.057,10.11709
7933.843,10.05353
7939.628,9.976074
7945.414,9.90167
7951.199,9.830388
7956.984,9.736319
7962.77,9.660748
7968.556,9.570052
7974.341,9.477845
7980.126,9.393111
7985.912,9.299253
7991.697,9.203578
7997.483,9.12047
8003.269,9.012692
8009.054,8.920915
8014.839,8.814466
8020.625,8.703605
8026.41,8.594296
8032.196,8.462826
8037.981,8.360795
8043.767,8.24472
8049.553,8.106384
8055.338,7.977257
8061.124,7.851097
8066.909,7.721682
8072.694,7.590954
8078.48,7.460351
8084.266,7.315976
8090.051,7.178256
8095.836,7.053398
8101.622,6.910838
8107.407,6.758617
8113.192,6.617356
8118.979,6.457214
8124.764,6.316189
8130.55,6.137933
8136.335,5.998412
8142.12,5.831957
8147.906,5.68049
8153.691,5.524748
8159.477,5.384371
8165.263,5.227273
8171.048,5.093433
8176.833,4.938165
8182.619,4.811456
8188.404,4.717062
8194.189,4.621728
8199.976,4.546247
8205.761,4.486183
8211.546,4.439078
8217.332,4.419655
8223.117,4.420335
8228.902,4.426506
8234.688,4.434759
8240.474,4.449058
8246.259,4.45008
8252.045,4.479714
8257.83,4.506383
8263.616,4.546473
8269.401,4.601237
8275.187,4.667551
8280.973,4.727087
8286.758,4.831149
8292.543,4.921657
8298.329,5.026005
8304.114,5.123559
8309.899,5.220514
8315.686,5.338688
8321.471,5.422776
8327.256,5.533669
8333.042,5.640524
8338.827,5.750829
8344.612,5.887484
8350.398,6.032798
8356.184,6.179353
8361.969,6.324619
8367.755,6.459638
8373.54,6.611349
8379.325,6.744341
8385.111,6.864634
8390.896,6.973633
8396.683,7.036796
8402.468,7.065877
8408.253,7.063956
8414.039,7.031572
8419.824,7.022646
8425.609,7.016643
8431.396,7.078206
8437.181,7.184786
8442.966,7.341131
8448.752,7.509246
8454.537,7.687493
8460.322,7.813073
8466.108,7.926969
8471.894,8.040348
8477.679,8.180138
8483.465,8.339086
8489.25,8.488021
8495.035,8.612432
8500.821,8.686791
8506.606,8.749034
8512.392,8.771152
8518.178,8.828325
8523.963,8.890419
8529.748,8.938463
8535.534,8.942411
8541.319,8.884619
8547.105,8.782995
8552.891,8.604403
8558.676,8.405668
8564.462,8.282766
8570.247,8.369643
8576.032,8.581309
8581.818,8.80663
8587.604,9.04956
8593.389,9.345139
8599.175,9.628281
8604.96,9.891092
8610.745,10.17059
8616.531,10.39593
8622.316,10.62083
8628.102,10.80667
8633.888,10.9871
8639.673,11.13625
8645.458,11.27918
8651.244,11.40668
8657.029,11.52092
8662.814,11.62781
8668.601,11.71779
8674.386,11.81805
8680.172,11.90939
8685.957,12.0043
8691.742,12.11059
8697.528,12.23989
8703.313,12.33818
8709.099,12.46074
8714.885,12.56872
8720.67,12.66377
8726.455,12.77558
8732.241,12.90114
8738.026,13.00645
8743.812,13.09797
8749.598,13.19893
8755.383,13.30308
8761.168,13.376
8766.954,13.4505
8772.739,13.5226
8778.524,13.57896
8784.311,13.63851
8790.096,13.68107
8795.881,13.71762
8801.667,13.75712
8807.452,13.8009
8813.237,13.83871
8819.023,13.8384
8824.809,13.86198
8830.595,13.88958
8836.38,13.89815
8842.165,13.91428
8847.951,13.92437
8853.736,13.94907
8859.521,13.94394
8865.308,13.95665
8871.093,13.96527
8876.878,13.95508
8882.664,13.98671
8888.449,13.95994
8894.234,13.95756
8900.021,13.96567
8905.806,13.95744
8911.591,13.94445
8917.377,13.93025
8923.162,13.93174
8928.947,13.92894
8934.733,13.90741
8940.519,13.91215
8946.304,13.91241
8952.09,13.92231
8957.875,13.89644
8963.661,13.90672
8969.446,13.89881
8975.231,13.88704
8981.018,13.92571
8986.803,13.91093
8992.588,13.93411
8998.374,13.93136
9004.159,13.95738
9009.944,13.96434
9015.73,13.96132
9021.516,13.97444
9027.301,13.98368
9033.087,13.99711
9038.872,13.99058
9044.657,14.0037
9050.443,14.01541
9056.229,14.02309
9062.014,14.03261
9067.8,14.02023
9073.585,14.03808
9079.37,14.03574
9085.156,14.02846
9090.941,14.03795
9096.727,14.05331
9102.513,14.0625
9108.298,14.04867
9114.084,14.03736
9119.869,14.03185
9125.654,14.01951
9131.44,14.02389
9137.226,14.02148
9143.011,14.00192
9148.797,14.00337
9154.582,14.00773
9160.367,14.00194
9166.153,13.97368
9171.938,13.96388
9177.724,13.96651
9183.51,13.947
9189.295,13.91457
9195.08,13.91397
9200.866,13.8916
9206.651,13.89476
9212.437,13.87867
9218.223,13.86028
9224.008,13.87293
9229.793,13.85924
9235.579,13.83543
9241.364,13.85216
9247.15,13.82824
9252.936,13.8274
9258.721,13.79926
9264.507,13.78067
9270.292,13.79959
9276.077,13.78023
9281.863,13.78059
9287.648,13.74273
9293.434,13.76541
9299.22,13.75311
9305.005,13.75856
9310.79,13.76431
9316.576,13.75538
9322.361,13.76218
9328.146,13.76516
9333.933,13.75225
9339.718,13.74252
9345.503,13.74757
9351.289,13.75124
9357.074,13.70776
9362.859,13.70264
9368.646,13.69633
9374.431,13.66273
9380.217,13.63664
9386.002,13.64131
9391.787,13.60789
9397.573,13.59349
9403.358,13.57115
9409.144,13.52876
9414.93,13.54497
9420.715,13.51123
9426.5,13.47875
9432.286,13.46644
9438.071,13.43513
9443.856,13.39949
9449.643,13.35039
9455.428,13.34736
9461.213,13.30573
9466.999,13.2962
9472.784,13.24826
9478.569,13.22484
9484.355,13.22214
9490.141,13.21031
9495.926,13.18165
9501.712,13.18425
9507.497,13.18133
9513.282,13.16253
9519.068,13.15403
9524.854,13.11645
9530.64,13.0938
9536.425,13.08178
9542.21,13.07345
9547.996,13.03253
9553.781,13.01569
9559.566,12.98289
9565.353,12.95306
9571.138,12.93234
9576.923,12.92746
9582.709,12.89357
9588.494,12.89296
9594.279,12.8842
9600.065,12.88699
9605.851,12.89579
9611.636,12.92308
9617.422,12.96398
9623.207,12.97345
9628.992,13.00219
9634.778,13.02435
9640.563,13.06399
9646.349,13.09115
9652.135,13.14058
9657.92,13.18222
9663.706,13.21477
9669.491,13.27982
9675.276,13.29503
9681.063,13.34096
9686.848,13.38306
9692.633,13.38683
9698.419,13.42336
9704.204,13.46689
9709.989,13.50311
9715.775,13.5729
9721.561,13.60924
9727.346,13.63114
9733.132,13.69325
9738.917,13.71257
9744.702,13.75732
9750.488,13.77628
9756.273,13.82394
9762.059,13.83298
9767.845,13.82041
9773.63,13.83164
9779.415,13.86728
9785.201,13.84321
9790.986,13.89382
9796.771,13.87656
9802.558,13.8684
9808.343,13.84557
9814.129,13.85201
9819.914,13.84148
9825.699,13.84924
9831.485,13.86645
9837.271,13.88333
9843.056,13.89441
9848.842,13.93613
9854.627,14.0193
9860.412,14.03587
9866.198,14.07945
9871.983,14.11044
9877.769,14.18891
9883.555,14.2142
9889.34,14.28693
9895.125,14.30221
9900.911,14.31743
9906.696,14.34975
9912.481,14.34274
9918.268,14.40544
9924.053,14.45271
9929.838,14.43101
9935.624,14.47363
9941.409,14.54519
9947.195,14.54622
9952.98,14.56501
9958.766,14.61619
9964.552,14.62158
9970.337,14.64995
9976.122,14.65307
9981.908,14.67546
9987.693,14.67642
9993.479,14.71815
9999.265,14.72849
10005.05,14.74444
10010.83,14.7405
10016.62,14.78946
10022.41,14.78729
10028.19,14.79965
10033.98,14.82457
10039.76,14.84187
10045.55,14.9057
10051.33,14.88755
10057.12,14.89453
10062.9,14.90851
10068.69,14.90576
10074.48,14.95622
10080.26,14.94904
10086.05,14.94593
10091.83,14.97467
10097.62,14.95671
10103.4,14.95581
10109.19,14.97266
10114.97,14.95932
10120.76,14.97926
10126.54,15.02565
10132.33,14.99349
10138.12,15.02914
10143.9,15.01299
10149.69,14.97941
10155.47,14.99672
10161.26,15.01996
10167.04,15.00566
10172.83,15.03039
10178.61,15.00376
10184.4,15.02341
10190.19,14.99925
10195.97,15.03268
10201.76,15.03625
10207.54,15.04029
10213.33,15.0275
10219.11,15.00119
10224.9,15.05233
10230.68,15.0036
10236.47,15.0017
10242.25,15.00272
10248.04,14.95509
10253.83,15.00577
10259.61,14.97724
10265.4,15.00502
10271.18,14.99998
10276.97,14.95033
10282.75,14.9462
10288.54,14.97677
10294.32,14.94825
10300.11,14.95593
10305.9,14.9777
10311.68,14.94445
10317.47,14.9346
10323.25,14.93206
10329.04,14.93688
10334.82,14.93616
10340.61,14.91974
10346.39,14.92142
10352.18,14.92661
10357.96,14.91314
10363.75,14.92264
10369.54,14.89188
10375.32,14.91646
10381.11,14.88441
10386.89,14.90303
10392.68,14.85736
10398.46,14.82759
10404.25,14.83907
10410.03,14.83265
10415.82,14.78741
10421.61,14.83924
10427.39,14.80497
10433.18,14.74566
10438.96,14.72112
10444.75,14.79274
10450.53,14.68621
10456.32,14.71044
10462.1,14.71725
10467.89,14.63873
10473.67,14.66394
10479.46,14.61051
10485.25,14.55746
10491.03,14.56222
10496.82,14.50778
10502.6,14.45332
10508.39,14.45004
10514.17,14.43293
10519.96,14.35674
10525.74,14.30177
10531.53,14.2662
10537.32,14.21263
10543.1,14.17118
10548.89,14.10583
10554.67,14.08891
10560.46,13.95696
10566.24,13.90354
10572.03,13.85897
10577.81,13.70172
10583.6,13.66931
10589.38,13.57181
10595.17,13.50821
10600.96,13.35036
10606.74,13.25566
10612.53,13.14723
10618.31,13.03014
10624.1,12.89537
10629.88,12.78322
10635.67,12.66847
10641.45,12.57064
10647.24,12.39608
10653.03,12.26262
10658.81,12.13297
10664.6,12.021
10670.38,11.93389
10676.17,11.8327
10681.95,11.75162
10687.74,11.62588
10693.52,11.56234
10699.31,11.4535
10705.09,11.49513
10710.88,11.45007
10716.67,11.40492
10722.45,11.38909
10728.24,11.40305
10734.02,11.39578
10739.81,11.43398
10745.59,11.40285
10751.38,11.5015
10757.16,11.57866
10762.95,11.60473
10768.74,11.66664
10774.52,11.75296
10780.31,11.78601
10786.09,11.8829
10791.88,11.94321
10797.66,12.00737
10803.45,12.1344
10809.23,12.21509
10815.02,12.32014
10820.8,12.36621
10826.59,12.42283
10832.38,12.57356
10838.16,12.70994
10843.95,12.77849
10849.73,12.84966
10855.52,12.90338
10861.3,13.08177
10867.09,13.1652
10872.87,13.28587
10878.66,13.37233
10884.45,13.43528
10890.23,13.46585
10896.02,13.56064
10901.8,13.67234
10907.59,13.76229
10913.37,13.79288
10919.16,13.87693
10924.94,13.91953
10930.73,13.98109
10936.51,14.1024
10942.3,14.1198
10948.09,14.18049
10953.87,14.30874
10959.66,14.38236
10965.44,14.46726
10971.23,14.49734
10977.01,14.47929
10982.8,14.62445
10988.58,14.62239
10994.37,14.65852
11000.16,14.72274
11005.94,14.70026
11011.73,14.81252
11017.51,14.87377
11023.3,14.84293
11029.08,14.89662
11034.87,14.91762
11040.65,14.97627
11046.44,14.98117
11052.22,14.93972
11058.01,14.96208
11063.79,15.05659
11069.58,15.06519
11075.37,15.05723
11081.15,15.0617
11086.94,15.03134
11092.72,15.01516
11098.51,15.12522
11104.29,15.02328
11110.08,15.05447
11115.87,15.04872
11121.65,15.08696
11127.44,15.1605
11133.22,15.11477
11139.01,15.08094
11144.79,15.20729
11150.58,15.23274
11156.36,15.24014
11162.15,15.29598
11167.93,15.23575
11173.72,15.28906
11179.5,15.26469
11185.29,15.3335
11191.08,15.31496
11196.86,15.44902
11202.65,15.37708
11208.43,15.49256
11214.22,15.55896
11220.0,15.57297
11225.79,15.52241
11231.58,15.49897
11237.36,15.60145
11243.15,15.58266
11248.93,15.66277
11254.72,15.69346
11260.5,15.78462
11266.29,15.73202
11272.07,15.7589
11277.86,15.74152
11283.64,15.85319
11289.43,15.78927
11295.21,15.71109
11301.0,15.78741
11306.79,15.82937
11312.57,15.86806
11318.36,15.78185
11324.14,15.8121
11329.93,15.88425
11335.71,15.88808
11341.5,15.87225
11347.28,15.93519
11353.07,15.9729
11358.86,15.91794
11364.64,15.87845
11370.43,15.859
11376.21,15.93461
11382.0,16.02491
11387.78,15.9562
11393.57,16.02269
11399.35,15.92656
11405.14,15.96287
11410.92,16.00941
11416.71,16.04732
11422.5,16.06495
11428.28,16.10908
11434.07,16.06579
11439.85,16.06702
11445.64,16.00265
11451.42,16.14494
11457.21,16.12494
11462.99,16.10617
11468.78,16.11659
11474.57,16.12994
11480.35,16.2422
11486.14,16.14428
11491.92,16.24254
11497.71,16.14639
11503.49,16.17658
11509.28,16.14314
11515.06,16.21558
11520.85,16.22191
11526.63,16.25246
11532.42,16.20722
11538.21,16.17831
11543.99,16.12984
11549.78,16.26686
11555.56,16.21146
11561.35,16.18512
11567.13,16.20444
11572.92,16.18026
11578.7,16.26764
11584.49,16.33469
11590.28,16.3279
11596.06,16.36682
11601.85,16.3145
11607.63,16.29136
11613.42,16.36278
11619.2,16.30038
11624.99,16.38871
11630.77,16.18848
11636.56,16.21661
11642.34,16.36537
11648.13,16.35251
11653.92,16.3882
11659.7,16.36777
11665.49,16.20069
11671.27,16.40923
11677.06,16.29751
11682.84,16.31061
11688.63,16.35394
11694.41,16.37629
11700.2,16.22873
11705.99,16.34145
11711.77,16.3152
11717.56,16.26618
11723.34,16.31401
11729.13,16.20028
11734.91,16.33503
11740.7,16.39625
11746.48,16.36137
11752.27,16.42905
11758.05,16.3122
11763.84,16.3975
11769.63,16.26396
11775.41,16.33337
11781.2,16.31967
11786.98,16.37503
11792.77,16.36985
11798.55,16.26529
11804.34,16.24249
11810.12,16.35316
11815.91,16.34456
11821.7,16.30086
11827.48,16.2367
11833.27,16.39273
11839.05,16.2356
11844.84,16.38145
11850.62,16.24682
11856.41,16.32555
11862.19,16.30418
11867.98,16.49692
11873.76,16.2504
11879.55,16.37429
11885.34,16.30348
11891.12,16.34595
11896.91,16.38079
11902.69,16.40896
11908.48,16.45877
11914.26,16.24517
11920.05,16.48718
11925.83,16.47242
11931.62,16.56791
11937.41,16.41074
11943.19,16.3398
11948.98,16.51902
11954.76,16.53327
11960.55,16.54347
11966.33,16.51438
11972.12,16.438
11977.9,16.37422
11983.69,16.51633
11989.47,16.50786
11995.26,16.51684
11999.12,16.51515