File: Data/NIR/H0008HDPE_5.csv
Wavenumber,Intensity
3999.706,3.024316
4005.491,3.021931
4011.277,3.017777
4017.062,3.003911
4022.848,3.001129
4028.633,3.008716
4034.419,3.013509
4040.204,3.010295
4045.99,3.013864
4051.775,3.014844
4057.561,3.0124
4063.346,3.016728
4069.132,3.013488
4074.917,3.012372
4080.703,3.008748
4086.488,3.001008
4092.274,2.993121
4098.059,2.993529
4103.845,2.995015
4109.63,2.997968
4115.416,2.999963
4121.201,2.999913
4126.987,3.000257
4132.772,3.00374
4138.558,2.999092
4144.343,3.00151
4150.129,3.002399
4155.914,3.003809
4161.7,3.006141
4167.485,3.009588
4173.271,3.013142
4179.056,3.020849
4184.842,3.023576
4190.627,3.025229
4196.413,3.037686
4202.198,3.043986
4207.983,3.06037
4213.769,3.065875
4219.555,3.070667
4225.34,3.075998
4231.125,3.089336
4236.911,3.099503
4242.697,3.084782
4248.482,3.059488
4254.268,3.061917
4260.053,3.092803
4265.838,3.114341
4271.624,3.126528
4277.41,3.134473
4283.195,3.141065
4288.98,3.144992
4294.766,3.156385
4300.552,3.154982
4306.337,3.138346
4312.123,3.117887
4317.908,3.070431
4323.693,3.048306
4329.479,3.077109
4335.265,3.092563
4341.05,3.111781
4346.835,3.123683
4352.621,3.147091
4358.407,3.161608
4364.192,3.173277
4369.978,3.190144
4375.763,3.201493
4381.548,3.223686
4387.334,3.242133
4393.12,3.280481
4398.905,3.326266
4404.69,3.376779
4410.476,3.44739
4416.262,3.508758
4422.047,3.562507
4427.833,3.610105
4433.618,3.642366
4439.403,3.685651
4445.189,3.739266
4450.975,3.801914
4456.76,3.871233
4462.545,3.928267
4468.331,3.972705
4474.116,4.005678
4479.902,4.067128
4485.688,4.138817
4491.473,4.20527
4497.258,4.272912
4503.044,4.337917
4508.83,4.409873
4514.615,4.481945
4520.4,4.547666
4526.186,4.604818
4531.971,4.664938
4537.757,4.735099
4543.542,4.801573
4549.328,4.873344
4555.113,4.948477
4560.899,5.028087
4566.685,5.100227
4572.47,5.161249
4578.255,5.2066
4584.041,5.251931
4589.826,5.282645
4595.612,5.30293
4601.397,5.313625
4607.183,5.338725
4612.968,5.373049
4618.754,5.400687
4624.539,5.4358
4630.325,5.464441
4636.11,5.476164
4641.896,5.483973
4647.681,5.481573
4653.467,5.461175
4659.252,5.399694
4665.038,5.320139
4670.823,5.333341
4676.609,5.425454
4682.394,5.51947
4688.18,5.569409
4693.965,5.580173
4699.751,5.579652
4705.536,5.565015
4711.322,5.526287
4717.107,5.484313
4722.893,5.458698
4728.678,5.432734
4734.464,5.426462
4740.249,5.422811
4746.035,5.406046
4751.82,5.387225
4757.605,5.361025
4763.391,5.321122
4769.177,5.266132
4774.962,5.197042
4780.748,5.160753
4786.533,5.15275
4792.319,5.141402
4798.104,5.117309
4803.89,5.092351
4809.675,5.049285
4815.46,5.001214
4821.246,4.951728
4827.032,4.920942
4832.817,4.891045
4838.603,4.844621
4844.388,4.792402
4850.174,4.738382
4855.959,4.689909
4861.745,4.646458
4867.53,4.623771
4873.315,4.625236
4879.101,4.650374
4884.887,4.670719
4890.672,4.699563
4896.458,4.719899
4902.243,4.735919
4908.028,4.751956
4913.814,4.758685
4919.6,4.754876
4925.385,4.750341
4931.17,4.751904
4936.956,4.748723
4942.742,4.739855
4948.527,4.696692
4954.313,4.611238
4960.098,4.495649
4965.883,4.473979
4971.669,4.527907
4977.455,4.56157
4983.24,4.595579
4989.025,4.641072
4994.811,4.698503
5000.597,4.778895
5006.382,4.822938
5012.167,4.842623
5017.953,4.8359
5023.738,4.862054
5029.524,4.889872
5035.31,4.902346
5041.095,4.908142
5046.88,4.913507
5052.666,4.894549
5058.451,4.857599
5064.237,4.841594
5070.022,4.849724
5075.808,4.849565
5081.593,4.842125
5087.379,4.830133
5093.165,4.81514
5098.95,4.808579
5104.735,4.81522
5110.521,4.838655
5116.307,4.856502
5122.092,4.868783
5127.877,4.883496
5133.663,4.898069
5139.448,4.886229
5145.234,4.86373
5151.02,4.835771
5156.805,4.813833
5162.59,4.812809
5168.376,4.822062
5174.161,4.818424
5179.947,4.810318
5185.732,4.805527
5191.518,4.807982
5197.303,4.824723
5203.089,4.836346
5208.874,4.835146
5214.66,4.824913
5220.445,4.832761
5226.231,4.846942
5232.016,4.857892
5237.802,4.869209
5243.587,4.898018
5249.373,4.904397
5255.158,4.920938
5260.944,4.935548
5266.729,4.921554
5272.515,4.91217
5278.3,4.913312
5284.086,4.928846
5289.871,4.93633
5295.657,4.906354
5301.442,4.881349
5307.228,4.852788
5313.013,4.873337
5318.799,4.965154
5324.584,5.019294
5330.37,5.015051
5336.155,5.006594
5341.94,4.948506
5347.726,4.871628
5353.512,4.803402
5359.297,4.746094
5365.083,4.699608
5370.868,4.650604
5376.654,4.634379
5382.439,4.623986
5388.225,4.597774
5394.01,4.571011
5399.796,4.519143
5405.581,4.468244
5411.367,4.408999
5417.152,4.309805
5422.938,4.281593
5428.723,4.267882
5434.509,4.255347
5440.294,4.260082
5446.08,4.240526
5451.865,4.21894
5457.65,4.213728
5463.436,4.199913
5469.222,4.184875
5475.007,4.168118
5480.792,4.12042
5486.578,4.088714
5492.363,4.081946
5498.149,4.087548
5503.935,4.103724
5509.72,4.119648
5515.505,4.143672
5521.291,4.149347
5527.077,4.144907
5532.862,4.144208
5538.647,4.133093
5544.433,4.121674
5550.219,4.111608
5556.004,4.118013
5561.79,4.134892
5567.575,4.175934
5573.36,4.237859
5579.146,4.299373
5584.932,4.348989
5590.717,4.361784
5596.502,4.345968
5602.288,4.30325
5608.073,4.251398
5613.859,4.19658
5619.645,4.147772
5625.43,4.09749
5631.215,4.05189
5637.001,4.004146
5642.786,3.934452
5648.572,3.805859
5654.357,3.63846
5660.143,3.511714
5665.929,3.496972
5671.714,3.568093
5677.5,3.666934
5683.285,3.747445
5689.07,3.810114
5694.856,3.880265
5700.642,3.978899
5706.427,4.070437
5712.212,4.119514
5717.998,4.10171
5723.783,3.965733
5729.569,3.756432
5735.354,3.710935
5741.14,3.68175
5746.925,3.608182
5752.711,3.529812
5758.496,3.462264
5764.282,3.404831
5770.067,3.357147
5775.853,3.342963
5781.638,3.365092
5787.424,3.400532
5793.209,3.433213
5798.995,3.474262
5804.78,3.506041
5810.566,3.550968
5816.352,3.595661
5822.137,3.650755
5827.922,3.729124
5833.708,3.810284
5839.493,3.902282
5845.279,4.035649
5851.064,4.222011
5856.85,4.48156
5862.635,4.832658
5868.421,5.202114
5874.206,5.568965
5879.992,5.885904
5885.777,6.150277
5891.563,6.37011
5897.348,6.559026
5903.134,6.73959
5908.919,6.911443
5914.705,7.068357
5920.49,7.21352
5926.276,7.363042
5932.061,7.5096
5937.847,7.652798
5943.632,7.781597
5949.418,7.919275
5955.203,8.082886
5960.989,8.288452
5966.774,8.542471
5972.56,8.79911
5978.345,9.038817
5984.131,9.25738
5989.916,9.461043
5995.702,9.635005
6001.487,9.816208
6007.272,9.970961
6013.058,10.13489
6018.844,10.2956
6024.629,10.46347
6030.415,10.60296
6036.2,10.7295
6041.985,10.83518
6047.771,10.93873
6053.557,11.03154
6059.342,11.1189
6065.128,11.18409
6070.913,11.249
6076.698,11.32071
6082.484,11.38111
6088.27,11.42941
6094.055,11.42775
6099.841,11.33073
6105.626,11.22208
6111.412,11.25201
6117.197,11.392
6122.982,11.51075
6128.768,11.60504
6134.554,11.69492
6140.339,11.78133
6146.125,11.84578
6151.91,11.90244
6157.695,11.95711
6163.481,12.01234
6169.267,12.06804
6175.052,12.12181
6180.837,12.15418
6186.623,12.18085
6192.408,12.20491
6198.194,12.23807
6203.979,12.26049
6209.765,12.28916
6215.551,12.31059
6221.336,12.34442
6227.121,12.36901
6232.907,12.38779
6238.692,12.40061
6244.478,12.41379
6250.264,12.42368
6256.049,12.42458
6261.834,12.44073
6267.62,12.44911
6273.405,12.46086
6279.191,12.46886
6284.977,12.47715
6290.762,12.48624
6296.547,12.49451
6302.333,12.50652
6308.118,12.51236
6313.904,12.51595
6319.689,12.50264
6325.475,12.49097
6331.26,12.46194
6337.046,12.4405
6342.831,12.40804
6348.617,12.37551
6354.402,12.33742
6360.188,12.30594
6365.974,12.24361
6371.759,12.15857
6377.544,12.0926
6383.33,12.06604
6389.115,12.05114
6394.901,12.03472
6400.687,11.98884
6406.472,11.89772
6412.257,11.79037
6418.043,11.71947
6423.828,11.67888
6429.614,11.65917
6435.399,11.61481
6441.185,11.53248
6446.97,11.41286
6452.756,11.2833
6458.541,11.14538
6464.327,10.93987
6470.112,10.60118
6475.897,10.18477
6481.684,9.921837
6487.469,9.957055
6493.254,10.12945
6499.04,10.31044
6504.825,10.46561
6510.61,10.58619
6516.396,10.679
6522.182,10.75261
6527.967,10.82115
6533.753,10.88524
6539.538,10.93154
6545.324,10.98121
6551.109,11.01565
6556.895,11.05593
6562.68,11.09504
6568.466,11.15802
6574.251,11.2091
6580.037,11.25085
6585.822,11.27815
6591.607,11.29644
6597.393,11.30534
6603.179,11.3071
6608.964,11.31388
6614.75,11.31744
6620.535,11.30944
6626.32,11.30039
6632.106,11.28895
6637.892,11.26805
6643.677,11.24503
6649.463,11.21462
6655.248,11.17941
6661.034,11.14055
6666.819,11.10205
6672.604,11.06834
6678.39,11.022
6684.176,10.97559
6689.961,10.92525
6695.747,10.8705
6701.532,10.80611
6707.317,10.73216
6713.103,10.65664
6718.889,10.57945
6724.674,10.51053
6730.459,10.45424
6736.245,10.39959
6742.03,10.32922
6747.816,10.26922
6753.602,10.2097
6759.387,10.15091
6765.173,10.0822
6770.958,10.00881
6776.743,9.917536
6782.529,9.798365
6788.314,9.670992
6794.1,9.52579
6799.886,9.373769
6805.671,9.232568
6811.457,9.107846
6817.242,8.993496
6823.027,8.834041
6828.813,8.668819
6834.599,8.540608
6840.384,8.469937
6846.169,8.422575
6851.955,8.370693
6857.74,8.30232
6863.526,8.247744
6869.312,8.184006
6875.097,8.124847
6880.882,8.039636
6886.668,7.954563
6892.453,7.853871
6898.239,7.773749
6904.024,7.723135
6909.81,7.670753
6915.596,7.60399
6921.381,7.525778
6927.166,7.424763
6932.952,7.293166
6938.737,7.143996
6944.523,7.008877
6950.309,6.918289
6956.094,6.902788
6961.879,6.919055
6967.665,6.937995
6973.45,6.957
6979.236,6.960224
6985.021,6.942568
6990.807,6.899766
6996.592,6.844743
7002.378,6.77726
7008.163,6.695562
7013.949,6.628732
7019.734,6.572085
7025.52,6.562598
7031.305,6.596543
7037.091,6.650269
7042.876,6.658979
7048.662,6.583755
7054.447,6.417753
7060.232,6.231116
7066.019,6.229816
7071.804,6.466007
7077.589,6.776492
7083.375,6.988006
7089.16,7.093666
7094.946,7.164091
7100.731,7.250168
7106.517,7.401866
7112.302,7.542269
7118.088,7.712085
7123.873,7.813673
7129.659,7.850936
7135.444,7.792933
7141.229,7.670868
7147.015,7.51102
7152.801,7.259233
7158.586,6.802113
7164.372,6.143258
7170.157,5.657292
7175.942,5.701355
7181.729,6.140566
7187.514,6.624488
7193.299,7.08181
7199.085,7.465502
7204.87,7.865537
7210.655,8.171045
7216.441,8.433545
7222.227,8.71804
7228.012,9.066347
7233.798,9.398113
7239.583,9.69599
7245.369,9.970577
7251.154,10.26946
7256.939,10.53813
7262.725,10.82436
7268.511,11.08096
7274.296,11.35222
7280.082,11.59963
7285.867,11.84701
7291.652,12.08089
7297.438,12.30788
7303.224,12.53219
7309.009,12.77938
7314.794,12.9911
7320.58,13.18995
7326.365,13.39255
7332.151,13.51004
7337.937,13.66868
7343.722,13.76405
7349.508,13.83353
7355.293,13.94085
7361.079,13.99042
7366.864,14.07011
7372.649,14.10564
7378.435,14.16548
7384.221,14.20272
7390.006,14.24498
7395.792,14.28563
7401.577,14.31763
7407.362,14.33376
7413.148,14.36623
7418.934,14.39548
7424.719,14.40748
7430.504,14.42492
7436.29,14.44951
7442.075,14.46399
7447.861,14.47934
7453.646,14.51077
7459.432,14.53154
7465.218,14.55185
7471.003,14.55779
7476.788,14.55946
7482.574,14.56342
7488.359,14.55454
7494.145,14.54953
7499.931,14.54251
7505.716,14.53555
7511.501,14.53389
7517.287,14.52773
7523.072,14.5378
7528.858,14.52586
7534.644,14.51149
7540.429,14.49856
7546.214,14.47564
7552.0,14.46154
7557.785,14.44591
7563.571,14.42523
7569.356,14.40506
7575.142,14.39118
7580.927,14.37061
7586.713,14.35422
7592.498,14.33347
7598.284,14.30804
7604.069,14.283
7609.854,14.25503
7615.641,14.21732
7621.426,14.17523
7627.211,14.14548
7632.997,14.10065
7638.782,14.06034
7644.568,14.02429
7650.354,13.99377
7656.139,13.95129
7661.924,13.92617
7667.71,13.90048
7673.495,13.86836
7679.281,13.84564
7685.066,13.82388
7690.852,13.8075
7696.637,13.79368
7702.423,13.77202
7708.208,13.7571
7713.994,13.73208
7719.779,13.70411
7725.564,13.68144
7731.35,13.65338
7737.136,13.64668
7742.921,13.63564
7748.707,13.6155
7754.492,13.58432
7760.277,13.54014
7766.063,13.51619
7771.849,13.48305
7777.634,13.46619
7783.42,13.45681
7789.205,13.44381
7794.991,13.43757
7800.776,13.42105
7806.562,13.37882
7812.347,13.35043
7818.133,13.33317
7823.918,13.30214
7829.704,13.2692
7835.489,13.24175
7841.274,13.21091
7847.06,13.16119
7852.846,13.12525
7858.631,13.07549
7864.417,13.02791
7870.202,12.96334
7875.987,12.92365
7881.773,12.8626
7887.559,12.80245
7893.344,12.73499
7899.13,12.68772
7904.915,12.61354
7910.7,12.55045
7916.486,12.47969
7922.271,12.39817
7928.057,12.3362
7933.843,12.24909
7939.628,12.16709
7945.414,12.08499
7951.199,11.99208
7956.984,11.90858
7962.77,11.81747
7968.556,11.70356
7974.341,11.60635
7980.126,11.50757
7985.912,11.40272
7991.697,11.28979
7997.483,11.17981
8003.269,11.05963
8009.054,10.94003
8014.839,10.82585
8020.625,10.69262
8026.41,10.55061
8032.196,10.42162
8037.981,10.27587
8043.767,10.13991
8049.553,9.981024
8055.338,9.824814
8061.124,9.672208
8066.909,9.507276
8072.694,9.344045
8078.48,9.193895
8084.266,9.019702
8090.051,8.84554
8095.836,8.683209
8101.622,8.497375
8107.407,8.319141
8113.192,8.116478
8118.979,7.924891
8124.764,7.727168
8130.55,7.531397
8136.335,7.323243
8142.12,7.133281
8147.906,6.915348
8153.691,6.7227
8159.477,6.506107
8165.263,6.308206
8171.048,6.095979
8176.833,5.913665
8182.619,5.716806
8188.404,5.56998
8194.189,5.424232
8199.976,5.332266
8205.761,5.225977
8211.546,5.166167
8217.332,5.134776
8223.117,5.143575
8228.902,5.159823
8234.688,5.171966
8240.474,5.206264
8246.259,5.223464
8252.045,5.254656
8257.83,5.289888
8263.616,5.35669
8269.401,5.446603
8275.187,5.540411
8280.973,5.640585
8286.758,5.788263
8292.543,5.920448
8298.329,6.065062
8304.114,6.221085
8309.899,6.370459
8315.686,6.501089
8321.471,6.652883
8327.256,6.785158
8333.042,6.942243
8338.827,7.099906
8344.612,7.283269
8350.398,7.490028
8356.184,7.688503
8361.969,7.902961
8367.755,8.110755
8373.54,8.304846
8379.325,8.49183
8385.111,8.650705
8390.896,8.784005
8396.683,8.875723
8402.468,8.92007
8408.253,8.921986
8414.039,8.866719
8419.824,8.810535
8425.609,8.816505
8431.396,8.8683
8437.181,9.012504
8442.966,9.211068
8448.752,9.416541
8454.537,9.637529
8460.322,9.824983
8466.108,9.960736
8471.894,10.11377
8477.679,10.28824
8483.465,10.48532
8489.25,10.68259
8495.035,10.83915
8500.821,10.95025
8506.606,11.00335
8512.392,11.0319
8518.178,11.10057
8523.963,11.17194
8529.748,11.22605
8535.534,11.23625
8541.319,11.18021
8547.105,11.04152
8552.891,10.81823
8558.676,10.55824
8564.462,10.37731
8570.247,10.47982
8576.032,10.75258
8581.818,11.04515
8587.604,11.37025
8593.389,11.7283
8599.175,12.07898
8604.96,12.43709
8610.745,12.75804
8616.531,13.04314
8622.316,13.31828
8628.102,13.54077
8633.888,13.74006
8639.673,13.93549
8645.458,14.11408
8651.244,14.26223
8657.029,14.40754
8662.814,14.53167
8668.601,14.6429
8674.386,14.76372
8680.172,14.87283
8685.957,14.98491
8691.742,15.11462
8697.528,15.23554
8703.313,15.36262
8709.099,15.48015
8714.885,15.58411
8720.67,15.7215
8726.455,15.84767
8732.241,15.98181
8738.026,16.10613
8743.812,16.21732
8749.598,16.32722
8755.383,16.44831
8761.168,16.55424
8766.954,16.62964
8772.739,16.72668
8778.524,16.78858
8784.311,16.85594
8790.096,16.92518
8795.881,16.95308
8801.667,17.00734
8807.452,17.04235
8813.237,17.07483
8819.023,17.1066
8824.809,17.13927
8830.595,17.16042
8836.38,17.18476
8842.165,17.20926
8847.951,17.21253
8853.736,17.23286
8859.521,17.23746
8865.308,17.25685
8871.093,17.25376
8876.878,17.25998
8882.664,17.28299
8888.449,17.26772
8894.234,17.27678
8900.021,17.2522
8905.806,17.2613
8911.591,17.24351
8917.377,17.23539
8923.162,17.24166
8928.947,17.21719
8934.733,17.22378
8940.519,17.22488
8946.304,17.20492
8952.09,17.20391
8957.875,17.20943
8963.661,17.21992
8969.446,17.22162
8975.231,17.2318
8981.018,17.2544
8986.803,17.25918
8992.588,17.27909
8998.374,17.29782
9004.159,17.32258
9009.944,17.32344
9015.73,17.34767
9021.516,17.35164
9027.301,17.38368
9033.087,17.37487
9038.872,17.39212
9044.657,17.40498
9050.443,17.39467
9056.229,17.422
9062.014,17.4334
9067.8,17.44614
9073.585,17.46068
9079.37,17.45896
9085.156,17.49219
9090.941,17.47128
9096.727,17.48337
9102.513,17.47493
9108.298,17.49267
9114.084,17.48768
9119.869,17.47841
9125.654,17.49007
9131.44,17.47833
9137.226,17.49055
9143.011,17.47669
9148.797,17.46399
9154.582,17.464
9160.367,17.4577
9166.153,17.43912
9171.938,17.43793
9177.724,17.42687
9183.51,17.41441
9189.295,17.40277
9195.08,17.37733
9200.866,17.37492
9206.651,17.37432
9212.437,17.36946
9218.223,17.34624
9224.008,17.33921
9229.793,17.33618
9235.579,17.33262
9241.364,17.35265
9247.15,17.31437
9252.936,17.30611
9258.721,17.32894
9264.507,17.28127
9270.292,17.29661
9276.077,17.26685
9281.863,17.24834
9287.648,17.24181
9293.434,17.24984
9299.22,17.24418
9305.005,17.25052
9310.79,17.26038
9316.576,17.29136
9322.361,17.29144
9328.146,17.29259
9333.933,17.31206
9339.718,17.28735
9345.503,17.28181
9351.289,17.27286
9357.074,17.24409
9362.859,17.2364
9368.646,17.21312
9374.431,17.21034
9380.217,17.19196
9386.002,17.15708
9391.787,17.14468
9397.573,17.11867
9403.358,17.10651
9409.144,17.07326
9414.93,17.06565
9420.715,17.02862
9426.5,17.02118
9432.286,16.98648
9438.071,16.95675
9443.856,16.92685
9449.643,16.89999
9455.428,16.86531
9461.213,16.81493
9466.999,16.79941
9472.784,16.77632
9478.569,16.75454
9484.355,16.7557
9490.141,16.71666
9495.926,16.68735
9501.712,16.69511
9507.497,16.68749
9513.282,16.67861
9519.068,16.6627
9524.854,16.61231
9530.64,16.61375
9536.425,16.6018
9542.21,16.56012
9547.996,16.53446
9553.781,16.49952
9559.566,16.5051
9565.353,16.46246
9571.138,16.44956
9576.923,16.43275
9582.709,16.40484
9588.494,16.38068
9594.279,16.36467
9600.065,16.3756
9605.851,16.42672
9611.636,16.4451
9617.422,16.47327
9623.207,16.53275
9628.992,16.57027
9634.778,16.58674
9640.563,16.6294
9646.349,16.66052
9652.135,16.72752
9657.92,16.81191
9663.706,16.8191
9669.491,16.8753
9675.276,16.94852
9681.063,16.97285
9686.848,17.00116
9692.633,17.0642
9698.419,17.10205
9704.204,17.1456
9709.989,17.21174
9715.775,17.26435
9721.561,17.30218
9727.346,17.36244
9733.132,17.41236
9738.917,17.45953
9744.702,17.50739
9750.488,17.52831
9756.273,17.56544
9762.059,17.5875
9767.845,17.63672
9773.63,17.64743
9779.415,17.64652
9785.201,17.67994
9790.986,17.65578
9796.771,17.63652
9802.558,17.64999
9808.343,17.6356
9814.129,17.65489
9819.914,17.65433
9825.699,17.71387
9831.485,17.6797
9837.271,17.70446
9843.056,17.75513
9848.842,17.81995
9854.627,17.84377
9860.412,17.91484
9866.198,17.93234
9871.983,18.01497
9877.769,18.06046
9883.555,18.12135
9889.34,18.17087
9895.125,18.2134
9900.911,18.27358
9906.696,18.30249
9912.481,18.34775
9918.268,18.35806
9924.053,18.39277
9929.838,18.41738
9935.624,18.48427
9941.409,18.50441
9947.195,18.52519
9952.98,18.54253
9958.766,18.59667
9964.552,18.65054
9970.337,18.65678
9976.122,18.68518
9981.908,18.71141
9987.693,18.69975
9993.479,18.74504
9999.265,18.78203
10005.05,18.78702
10010.83,18.82825
10016.62,18.82445
10022.41,18.85485
10028.19,18.87642
10033.98,18.90675
10039.76,18.93848
10045.55,18.95654
10051.33,19.00803
10057.12,18.99202
10062.9,19.02942
10068.69,19.03532
10074.48,19.0276
10080.26,19.08363
10086.05,19.07701
10091.83,19.08717
10097.62,19.09335
10103.4,19.10152
10109.19,19.08146
10114.97,19.11143
10120.76,19.15177
10126.54,19.16098
10132.33,19.1569
10138.12,19.19826
10143.9,19.18055
10149.69,19.17118
10155.47,19.18338
10161.26,19.15988
10167.04,19.18971
10172.83,19.18672
10178.61,19.19346
10184.4,19.21555
10190.19,19.22048
10195.97,19.21292
10201.76,19.19462
10207.54,19.22813
10213.33,19.25317
10219.11,19.22774
10224.9,19.24352
10230.68,19.20571
10236.47,19.21161
10242.25,19.18407
10248.04,19.21375
10253.83,19.2396
10259.61,19.21822
10265.4,19.21026
10271.18,19.19895
10276.97,19.19225
10282.75,19.17337
10288.54,19.18599
10294.32,19.16626
10300.11,19.18638
10305.9,19.21386
10311.68,19.20098
10317.47,19.13846
10323.25,19.21777
10329.04,19.2011
10334.82,19.15499
10340.61,19.18217
10346.39,19.17783
10352.18,19.16185
10357.96,19.14651
10363.75,19.19205
10369.54,19.12241
10375.32,19.15721
10381.11,19.1025
10386.89,19.14186
10392.68,19.13041
10398.46,19.10462
10404.25,19.15759
10410.03,19.09982
10415.82,19.08065
10421.61,19.0863
10427.39,19.02036
10433.18,19.00458
10438.96,18.9892
10444.75,19.01359
10450.53,18.95094
10456.32,19.02195
10462.1,18.97258
10467.89,18.97156
10473.67,18.9005
10479.46,18.90634
10485.25,18.85724
10491.03,18.81121
10496.82,18.75148
10502.6,18.70838
10508.39,18.70534
10514.17,18.65896
10519.96,18.60165
10525.74,18.54263
10531.53,18.43965
10537.32,18.38134
10543.1,18.43847
10548.89,18.29677
10554.67,18.23582
10560.46,18.12891
10566.24,18.0595
10572.03,17.96936
10577.81,17.86275
10583.6,17.72556
10589.38,17.63844
10595.17,17.53278
10600.96,17.44427
10606.74,17.27216
10612.53,17.20372
10618.31,17.0305
10624.1,16.94009
10629.88,16.75482
10635.67,16.60864
10641.45,16.45509
10647.24,16.33266
10653.03,16.11857
10658.81,16.03242
10664.6,15.86494
10670.38,15.72911
10676.17,15.58871
10681.95,15.47612
10687.74,15.29988
10693.52,15.24238
10699.31,15.16432
10705.09,15.11246
10710.88,15.09431
10716.67,15.0725
10722.45,15.08586
10728.24,15.00787
10734.02,15.09123
10739.81,15.09197
10745.59,15.15022
10751.38,15.21077
10757.16,15.27725
10762.95,15.34939
10768.74,15.39718
10774.52,15.48705
10780.31,15.59832
10786.09,15.66622
10791.88,15.8056
10797.66,15.94058
10803.45,16.06114
10809.23,16.12896
10815.02,16.26294
10820.8,16.3374
10826.59,16.41386
10832.38,16.63554
10838.16,16.76972
10843.95,16.91213
10849.73,16.98412
10855.52,17.05259
10861.3,17.20144
10867.09,17.28795
10872.87,17.44094
10878.66,17.57864
10884.45,17.60579
10890.23,17.66258
10896.02,17.87965
10901.8,18.00278
10907.59,18.03692
10913.37,18.13805
10919.16,18.23495
10924.94,18.34839
10930.73,18.39463
10936.51,18.56032
10942.3,18.61697
10948.09,18.67956
10953.87,18.76405
10959.66,18.85429
10965.44,18.9805
10971.23,18.93697
10977.01,19.08065
10982.8,19.08305
10988.58,19.17606
10994.37,19.25598
11000.16,19.30335
11005.94,19.26872
11011.73,19.36027
11017.51,19.446
11023.3,19.51491
11029.08,19.47675
11034.87,19.48129
11040.65,19.60451
11046.44,19.56488
11052.22,19.68242
11058.01,19.66346
11063.79,19.59576
11069.58,19.6952
11075.37,19.70604
11081.15,19.7491
11086.94,19.72792
11092.72,19.76231
11098.51,19.75688
11104.29,19.75936
11110.08,19.78021
11115.87,19.78663
11121.65,19.86271
11127.44,19.71643
11133.22,19.84779
11139.01,19.88275
11144.79,19.91458
11150.58,19.94737
11156.36,19.86837
11162.15,19.94419
11167.93,19.95308
11173.72,20.0659
11179.5,20.03709
11185.29,20.01396
11191.08,20.11237
11196.86,20.09503
11202.65,20.15672
11208.43,20.27066
11214.22,20.31829
11220.0,20.33019
11225.79,20.37688
11231.58,20.47091
11237.36,20.39994
11243.15,20.40854
11248.93,20.3963
11254.72,20.55612
11260.5,20.49869
11266.29,20.556
11272.07,20.63363
11277.86,20.56321
11283.64,20.6456
11289.43,20.61909
11295.21,20.71623
11301.0,20.616
11306.79,20.6834
11312.57,20.77486
11318.36,20.76891
11324.14,20.72739
11329.93,20.88602
11335.71,20.78338
11341.5,20.79646
11347.28,20.77927
11353.07,20.78405
11358.86,20.80497
11364.64,20.88036
11370.43,20.8245
11376.21,20.85656
11382.0,20.89431
11387.78,20.97782
11393.57,20.94785
11399.35,20.81397
11405.14,20.95814
11410.92,20.95544
11416.71,20.96424
11422.5,20.99937
11428.28,21.0367
11434.07,21.00196
11439.85,21.06389
11445.64,20.94688
11451.42,21.14183
11457.21,21.09672
11462.99,21.11252
11468.78,21.08572
11474.57,21.13963
11480.35,21.09715
11486.14,21.157
11491.92,21.14873
11497.71,21.23495
11503.49,21.19168
11509.28,21.18801
11515.06,21.24051
11520.85,21.25862
11526.63,21.26131
11532.42,21.35017
11538.21,21.35388
11543.99,21.33668
11549.78,21.29936
11555.56,21.3497
11561.35,21.32836
11567.13,21.32124
11572.92,21.32817
11578.7,21.45159
11584.49,21.25792
11590.28,21.43215
11596.06,21.34726
11601.85,21.46887
11607.63,21.40678
11613.42,21.37945
11619.2,21.46375
11624.99,21.4593
11630.77,21.43485
11636.56,21.52586
11642.34,21.47586
11648.13,21.45892
11653.92,21.50096
11659.7,21.49236
11665.49,21.47911
11671.27,21.54766
11677.06,21.55191
11682.84,21.49811
11688.63,21.43921
11694.41,21.48253
11700.2,21.44094
11705.99,21.41076
11711.77,21.50595
11717.56,21.50776
11723.34,21.39148
11729.13,21.29693
11734.91,21.59434
11740.7,21.46966
11746.48,21.43495
11752.27,21.41466
11758.05,21.47193
11763.84,21.40584
11769.63,21.44578
11775.41,21.33573
11781.2,21.50878
11786.98,21.52342
11792.77,21.41751
11798.55,21.4845
11804.34,21.39987
11810.12,21.37885
11815.91,21.45609
11821.7,21.53449
11827.48,21.41183
11833.27,21.39347
11839.05,21.39486
11844.84,21.40316
11850.62,21.42127
11856.41,21.44027
11862.19,21.4505
11867.98,21.56178
11873.76,21.58736
11879.55,21.55269
11885.34,21.50575
11891.12,21.49806
11896.91,21.66191
11902.69,21.50378
11908.48,21.44285
11914.26,21.58938
11920.05,21.59907
11925.83,21.43521
11931.62,21.68711
11937.41,21.6659
11943.19,21.62149
11948.98,21.51496
11954.76,21.48245
11960.55,21.54324
11966.33,21.6299
11972.12,21.52037
11977.9,21.56387
11983.69,21.46144
11989.47,21.57035
11995.26,21.60659
11999.12,21.53337