File: Data/NIR/H0008HDPE_3.csv
Wavenumber,Intensity
3999.706,3.107917
4005.491,3.105907
4011.277,3.102815
4017.062,3.084791
4022.848,3.078251
4028.633,3.086713
4034.419,3.088097
4040.204,3.094752
4045.99,3.09291
4051.775,3.098106
4057.561,3.094984
4063.346,3.100299
4069.132,3.096064
4074.917,3.098156
4080.703,3.098825
4086.488,3.093991
4092.274,3.089971
4098.059,3.093919
4103.845,3.099691
4109.63,3.097706
4115.416,3.098315
4121.201,3.102319
4126.987,3.102838
4132.772,3.104212
4138.558,3.110704
4144.343,3.106911
4150.129,3.107006
4155.914,3.111081
4161.7,3.112859
4167.485,3.114093
4173.271,3.121153
4179.056,3.12456
4184.842,3.13169
4190.627,3.136022
4196.413,3.14441
4202.198,3.156306
4207.983,3.167884
4213.769,3.176501
4219.555,3.183915
4225.34,3.190268
4231.125,3.200267
4236.911,3.201975
4242.697,3.199257
4248.482,3.189615
4254.268,3.193935
4260.053,3.208857
4265.838,3.225763
4271.624,3.233299
4277.41,3.23829
4283.195,3.244707
4288.98,3.254365
4294.766,3.259445
4300.552,3.257799
4306.337,3.243592
4312.123,3.234635
4317.908,3.216086
4323.693,3.209237
4329.479,3.217607
4335.265,3.226066
4341.05,3.229885
4346.835,3.241007
4352.621,3.253598
4358.407,3.270334
4364.192,3.283665
4369.978,3.293671
4375.763,3.311655
4381.548,3.342665
4387.334,3.375285
4393.12,3.426137
4398.905,3.484038
4404.69,3.556461
4410.476,3.638713
4416.262,3.718228
4422.047,3.779221
4427.833,3.835273
4433.618,3.87691
4439.403,3.923629
4445.189,3.981092
4450.975,4.058189
4456.76,4.130742
4462.545,4.192106
4468.331,4.241564
4474.116,4.278505
4479.902,4.344512
4485.688,4.412448
4491.473,4.486667
4497.258,4.552673
4503.044,4.622596
4508.83,4.69144
4514.615,4.762264
4520.4,4.826267
4526.186,4.886516
4531.971,4.949148
4537.757,5.016163
4543.542,5.085213
4549.328,5.151846
4555.113,5.227083
4560.899,5.306583
4566.685,5.376571
4572.47,5.432177
4578.255,5.481385
4584.041,5.517523
4589.826,5.551656
4595.612,5.571488
4601.397,5.58801
4607.183,5.612929
4612.968,5.637162
4618.754,5.663842
4624.539,5.700128
4630.325,5.725332
4636.11,5.735588
4641.896,5.743403
4647.681,5.741961
4653.467,5.723601
4659.252,5.6715
4665.038,5.594277
4670.823,5.606028
4676.609,5.698737
4682.394,5.780602
4688.18,5.823954
4693.965,5.840023
4699.751,5.840401
4705.536,5.831725
4711.322,5.798135
4717.107,5.757724
4722.893,5.728495
4728.678,5.709601
4734.464,5.702692
4740.249,5.701999
4746.035,5.685651
4751.82,5.66597
4757.605,5.641417
4763.391,5.60492
4769.177,5.552296
4774.962,5.488836
4780.748,5.455388
4786.533,5.446516
4792.319,5.43527
4798.104,5.418154
4803.89,5.389777
4809.675,5.346303
4815.46,5.299941
4821.246,5.252541
4827.032,5.222538
4832.817,5.189867
4838.603,5.150158
4844.388,5.097841
4850.174,5.038188
4855.959,4.994162
4861.745,4.949739
4867.53,4.927995
4873.315,4.932077
4879.101,4.95195
4884.887,4.974914
4890.672,5.000131
4896.458,5.020938
4902.243,5.038689
4908.028,5.05224
4913.814,5.054785
4919.6,5.056133
4925.385,5.053413
4931.17,5.052704
4936.956,5.058058
4942.742,5.036718
4948.527,4.997132
4954.313,4.910531
4960.098,4.797788
4965.883,4.775317
4971.669,4.829843
4977.455,4.856945
4983.24,4.897044
4989.025,4.940767
4994.811,4.998782
5000.597,5.073965
5006.382,5.124184
5012.167,5.134893
5017.953,5.139925
5023.738,5.156152
5029.524,5.185488
5035.31,5.195384
5041.095,5.201073
5046.88,5.204617
5052.666,5.188639
5058.451,5.154119
5064.237,5.134111
5070.022,5.140615
5075.808,5.147834
5081.593,5.135214
5087.379,5.119654
5093.165,5.112711
5098.95,5.102656
5104.735,5.109339
5110.521,5.132071
5116.307,5.148717
5122.092,5.161735
5127.877,5.176969
5133.663,5.190547
5139.448,5.178018
5145.234,5.158348
5151.02,5.131459
5156.805,5.108376
5162.59,5.108436
5168.376,5.113807
5174.161,5.113286
5179.947,5.103514
5185.732,5.100863
5191.518,5.101789
5197.303,5.123247
5203.089,5.124198
5208.874,5.135708
5214.66,5.118269
5220.445,5.129237
5226.231,5.148843
5232.016,5.152854
5237.802,5.161438
5243.587,5.183765
5249.373,5.206398
5255.158,5.210755
5260.944,5.216567
5266.729,5.219074
5272.515,5.201663
5278.3,5.196029
5284.086,5.21405
5289.871,5.220685
5295.657,5.193888
5301.442,5.162559
5307.228,5.145531
5313.013,5.159519
5318.799,5.248224
5324.584,5.288645
5330.37,5.290836
5336.155,5.269782
5341.94,5.21689
5347.726,5.156348
5353.512,5.097793
5359.297,5.027036
5365.083,4.983724
5370.868,4.935131
5376.654,4.912967
5382.439,4.900702
5388.225,4.880614
5394.01,4.85337
5399.796,4.79636
5405.581,4.749057
5411.367,4.678825
5417.152,4.584112
5422.938,4.549022
5428.723,4.536432
5434.509,4.525805
5440.294,4.52245
5446.08,4.507013
5451.865,4.486022
5457.65,4.476877
5463.436,4.465195
5469.222,4.448085
5475.007,4.428017
5480.792,4.376812
5486.578,4.337937
5492.363,4.32965
5498.149,4.339389
5503.935,4.359845
5509.72,4.375263
5515.505,4.398109
5521.291,4.407549
5527.077,4.403179
5532.862,4.400259
5538.647,4.389316
5544.433,4.374408
5550.219,4.36462
5556.004,4.365176
5561.79,4.391758
5567.575,4.432198
5573.36,4.492097
5579.146,4.562973
5584.932,4.61324
5590.717,4.624639
5596.502,4.607083
5602.288,4.564814
5608.073,4.507833
5613.859,4.45179
5619.645,4.39452
5625.43,4.344316
5631.215,4.298789
5637.001,4.244081
5642.786,4.165688
5648.572,4.019602
5654.357,3.816345
5660.143,3.664539
5665.929,3.650868
5671.714,3.74029
5677.5,3.863363
5683.285,3.958826
5689.07,4.028028
5694.856,4.107605
5700.642,4.220481
5706.427,4.321232
5712.212,4.369643
5717.998,4.348966
5723.783,4.205978
5729.569,3.969197
5735.354,3.916872
5741.14,3.881563
5746.925,3.781106
5752.711,3.685058
5758.496,3.594561
5764.282,3.521431
5770.067,3.467136
5775.853,3.453036
5781.638,3.474665
5787.424,3.517012
5793.209,3.563953
5798.995,3.604236
5804.78,3.656535
5810.566,3.714092
5816.352,3.77215
5822.137,3.835379
5827.922,3.920376
5833.708,4.01954
5839.493,4.128042
5845.279,4.26862
5851.064,4.472462
5856.85,4.739422
5862.635,5.081511
5868.421,5.4501
5874.206,5.796169
5879.992,6.092983
5885.777,6.334874
5891.563,6.539059
5897.348,6.708466
5903.134,6.870016
5908.919,7.023783
5914.705,7.160667
5920.49,7.29206
5926.276,7.419753
5932.061,7.550964
5937.847,7.670305
5943.632,7.792947
5949.418,7.911853
5955.203,8.050147
5960.989,8.226574
5966.774,8.449703
5972.56,8.667525
5978.345,8.873168
5984.131,9.060887
5989.916,9.231259
5995.702,9.388286
6001.487,9.529519
6007.272,9.670464
6013.058,9.808105
6018.844,9.945129
6024.629,10.09031
6030.415,10.21459
6036.2,10.31863
6041.985,10.40746
6047.771,10.48951
6053.557,10.57728
6059.342,10.65021
6065.128,10.70246
6070.913,10.76251
6076.698,10.81406
6082.484,10.87482
6088.27,10.912
6094.055,10.91842
6099.841,10.83299
6105.626,10.73447
6111.412,10.76671
6117.197,10.87915
6122.982,10.97353
6128.768,11.06671
6134.554,11.13913
6140.339,11.21258
6146.125,11.26755
6151.91,11.31928
6157.695,11.35999
6163.481,11.40898
6169.267,11.45811
6175.052,11.49852
6180.837,11.53168
6186.623,11.55781
6192.408,11.57106
6198.194,11.60022
6203.979,11.62407
6209.765,11.65097
6215.551,11.66691
6221.336,11.69109
6227.121,11.71352
6232.907,11.73503
6238.692,11.74922
6244.478,11.75086
6250.264,11.75864
6256.049,11.76664
6261.834,11.77039
6267.62,11.77761
6273.405,11.79136
6279.191,11.80226
6284.977,11.80704
6290.762,11.81319
6296.547,11.81055
6302.333,11.82991
6308.118,11.83963
6313.904,11.83859
6319.689,11.82818
6325.475,11.81588
6331.26,11.79489
6337.046,11.7696
6342.831,11.74725
6348.617,11.71748
6354.402,11.68509
6360.188,11.65303
6365.974,11.6074
6371.759,11.53069
6377.544,11.48086
6383.33,11.45397
6389.115,11.44044
6394.901,11.42537
6400.687,11.38168
6406.472,11.303
6412.257,11.22272
6418.043,11.15682
6423.828,11.11987
6429.614,11.10056
6435.399,11.06625
6441.185,10.99238
6446.97,10.89364
6452.756,10.79678
6458.541,10.66532
6464.327,10.48193
6470.112,10.19817
6475.897,9.844523
6481.684,9.6229
6487.469,9.64932
6493.254,9.793302
6499.04,9.94505
6504.825,10.07778
6510.61,10.18503
6516.396,10.26017
6522.182,10.32642
6527.967,10.38398
6533.753,10.43475
6539.538,10.47608
6545.324,10.51346
6551.109,10.54606
6556.895,10.58158
6562.68,10.61121
6568.466,10.66559
6574.251,10.71052
6580.037,10.75321
6585.822,10.7634
6591.607,10.78661
6597.393,10.79646
6603.179,10.79619
6608.964,10.79623
6614.75,10.7994
6620.535,10.79361
6626.32,10.78678
6632.106,10.77034
6637.892,10.75511
6643.677,10.73463
6649.463,10.71537
6655.248,10.68036
6661.034,10.65278
6666.819,10.60847
6672.604,10.5877
6678.39,10.54965
6684.176,10.51459
6689.961,10.4666
6695.747,10.41248
6701.532,10.36301
6707.317,10.29455
6713.103,10.23343
6718.889,10.16081
6724.674,10.10582
6730.459,10.0551
6736.245,10.00404
6742.03,9.952332
6747.816,9.900705
6753.602,9.851777
6759.387,9.79382
6765.173,9.742394
6770.958,9.674026
6776.743,9.591779
6782.529,9.488372
6788.314,9.379294
6794.1,9.258178
6799.886,9.133212
6805.671,9.006544
6811.457,8.907242
6817.242,8.78193
6823.027,8.659142
6828.813,8.519082
6834.599,8.406181
6840.384,8.33738
6846.169,8.29885
6851.955,8.251073
6857.74,8.198957
6863.526,8.151567
6869.312,8.092788
6875.097,8.037629
6880.882,7.965473
6886.668,7.880373
6892.453,7.79985
6898.239,7.731028
6904.024,7.682582
6909.81,7.648084
6915.596,7.586614
6921.381,7.510859
6927.166,7.421569
6932.952,7.310368
6938.737,7.176326
6944.523,7.050929
6950.309,6.97245
6956.094,6.957709
6961.879,6.971513
6967.665,6.987205
6973.45,7.003554
6979.236,7.002152
6985.021,6.981985
6990.807,6.950869
6996.592,6.901457
7002.378,6.839547
7008.163,6.772987
7013.949,6.708263
7019.734,6.660286
7025.52,6.652975
7031.305,6.685706
7037.091,6.7228
7042.876,6.730069
7048.662,6.662589
7054.447,6.510904
7060.232,6.346996
7066.019,6.341327
7071.804,6.563192
7077.589,6.824745
7083.375,7.019658
7089.16,7.105384
7094.946,7.178168
7100.731,7.246085
7106.517,7.382133
7112.302,7.507713
7118.088,7.663385
7123.873,7.742619
7129.659,7.768447
7135.444,7.717436
7141.229,7.628318
7147.015,7.477137
7152.801,7.249101
7158.586,6.841125
7164.372,6.253699
7170.157,5.82551
7175.942,5.849088
7181.729,6.266031
7187.514,6.687371
7193.299,7.08598
7199.085,7.446986
7204.87,7.7951
7210.655,8.056401
7216.441,8.28546
7222.227,8.542746
7228.012,8.833816
7233.798,9.162035
7239.583,9.368674
7245.369,9.635351
7251.154,9.877835
7256.939,10.11619
7262.725,10.35911
7268.511,10.58086
7274.296,10.81573
7280.082,11.02461
7285.867,11.23535
7291.652,11.42078
7297.438,11.62904
7303.224,11.81294
7309.009,12.0326
7314.794,12.22562
7320.58,12.38322
7326.365,12.54104
7332.151,12.67953
7337.937,12.77117
7343.722,12.90219
7349.508,12.96929
7355.293,13.04445
7361.079,13.08968
7366.864,13.13509
7372.649,13.1795
7378.435,13.23285
7384.221,13.28894
7390.006,13.30789
7395.792,13.33799
7401.577,13.36758
7407.362,13.39208
7413.148,13.40771
7418.934,13.44016
7424.719,13.45384
7430.504,13.46968
7436.29,13.47872
7442.075,13.49587
7447.861,13.52644
7453.646,13.54215
7459.432,13.56026
7465.218,13.56145
7471.003,13.57608
7476.788,13.58111
7482.574,13.58775
7488.359,13.58228
7494.145,13.56947
7499.931,13.56143
7505.716,13.56432
7511.501,13.56175
7517.287,13.5607
7523.072,13.55468
7528.858,13.55006
7534.644,13.54423
7540.429,13.52378
7546.214,13.51206
7552.0,13.49696
7557.785,13.48329
7563.571,13.47291
7569.356,13.45189
7575.142,13.43386
7580.927,13.42018
7586.713,13.40277
7592.498,13.39222
7598.284,13.35461
7604.069,13.34043
7609.854,13.31627
7615.641,13.27867
7621.426,13.25183
7627.211,13.21663
7632.997,13.18274
7638.782,13.1489
7644.568,13.11146
7650.354,13.09044
7656.139,13.04927
7661.924,13.02724
7667.71,13.00145
7673.495,12.98068
7679.281,12.95827
7685.066,12.94406
7690.852,12.93216
7696.637,12.91701
7702.423,12.89531
7708.208,12.87628
7713.994,12.8592
7719.779,12.83752
7725.564,12.81724
7731.35,12.78403
7737.136,12.78052
7742.921,12.7666
7748.707,12.75061
7754.492,12.72866
7760.277,12.68258
7766.063,12.66634
7771.849,12.64273
7777.634,12.62559
7783.42,12.62008
7789.205,12.60927
7794.991,12.60222
7800.776,12.57385
7806.562,12.55109
7812.347,12.53084
7818.133,12.5087
7823.918,12.48102
7829.704,12.45266
7835.489,12.42685
7841.274,12.39663
7847.06,12.36804
7852.846,12.32402
7858.631,12.27369
7864.417,12.23125
7870.202,12.2021
7875.987,12.13471
7881.773,12.09192
7887.559,12.04069
7893.344,11.98974
7899.13,11.95337
7904.915,11.87694
7910.7,11.82048
7916.486,11.75892
7922.271,11.70081
7928.057,11.62995
7933.843,11.56908
7939.628,11.50083
7945.414,11.42015
7951.199,11.34787
7956.984,11.26072
7962.77,11.17395
7968.556,11.09339
7974.341,11.00675
7980.126,10.91895
7985.912,10.82723
7991.697,10.71994
7997.483,10.63992
8003.269,10.53647
8009.054,10.44084
8014.839,10.33848
8020.625,10.21801
8026.41,10.10801
8032.196,9.979259
8037.981,9.860065
8043.767,9.744069
8049.553,9.594751
8055.338,9.471762
8061.124,9.335699
8066.909,9.191355
8072.694,9.063437
8078.48,8.913387
8084.266,8.765305
8090.051,8.611177
8095.836,8.470626
8101.622,8.316571
8107.407,8.157526
8113.192,7.987429
8118.979,7.815903
8124.764,7.655407
8130.55,7.459383
8136.335,7.281044
8142.12,7.100414
8147.906,6.917112
8153.691,6.73608
8159.477,6.562558
8165.263,6.369537
8171.048,6.186667
8176.833,5.992949
8182.619,5.840434
8188.404,5.678263
8194.189,5.569246
8199.976,5.454512
8205.761,5.377262
8211.546,5.310644
8217.332,5.279978
8223.117,5.285549
8228.902,5.298684
8234.688,5.320632
8240.474,5.344826
8246.259,5.35891
8252.045,5.384264
8257.83,5.43527
8263.616,5.48839
8269.401,5.570826
8275.187,5.656124
8280.973,5.756937
8286.758,5.882381
8292.543,6.020174
8298.329,6.161358
8304.114,6.273518
8309.899,6.417932
8315.686,6.557855
8321.471,6.677887
8327.256,6.806344
8333.042,6.935659
8338.827,7.085028
8344.612,7.2499
8350.398,7.42994
8356.184,7.592467
8361.969,7.789659
8367.755,7.957795
8373.54,8.143227
8379.325,8.297309
8385.111,8.447786
8390.896,8.557458
8396.683,8.633372
8402.468,8.656138
8408.253,8.659692
8414.039,8.609922
8419.824,8.588271
8425.609,8.568793
8431.396,8.635131
8437.181,8.755082
8442.966,8.931281
8448.752,9.127728
8454.537,9.308333
8460.322,9.464898
8466.108,9.574585
8471.894,9.718188
8477.679,9.855337
8483.465,10.02765
8489.25,10.19781
8495.035,10.3256
8500.821,10.41806
8506.606,10.48208
8512.392,10.49889
8518.178,10.55405
8523.963,10.62763
8529.748,10.66755
8535.534,10.67936
8541.319,10.62436
8547.105,10.50456
8552.891,10.32445
8558.676,10.09366
8564.462,9.941937
8570.247,10.04162
8576.032,10.26729
8581.818,10.53189
8587.604,10.80106
8593.389,11.12562
8599.175,11.40691
8604.96,11.71782
8610.745,11.99915
8616.531,12.25158
8622.316,12.48073
8628.102,12.67495
8633.888,12.8588
8639.673,13.01171
8645.458,13.16007
8651.244,13.29792
8657.029,13.41923
8662.814,13.52442
8668.601,13.62706
8674.386,13.72746
8680.172,13.83499
8685.957,13.91633
8691.742,14.02726
8697.528,14.15084
8703.313,14.2436
8709.099,14.34975
8714.885,14.46561
8720.67,14.55998
8726.455,14.67058
8732.241,14.79425
8738.026,14.89451
8743.812,14.99169
8749.598,15.10293
8755.383,15.20554
8761.168,15.27895
8766.954,15.35306
8772.739,15.42564
8778.524,15.48955
8784.311,15.55725
8790.096,15.60693
8795.881,15.64523
8801.667,15.67
8807.452,15.72465
8813.237,15.76619
8819.023,15.77581
8824.809,15.78821
8830.595,15.81266
8836.38,15.82266
8842.165,15.8386
8847.951,15.86533
8853.736,15.87106
8859.521,15.88574
8865.308,15.89633
8871.093,15.9164
8876.878,15.90075
8882.664,15.90103
8888.449,15.90108
8894.234,15.91324
8900.021,15.93744
8905.806,15.91139
8911.591,15.89252
8917.377,15.89604
8923.162,15.86944
8928.947,15.87618
8934.733,15.84935
8940.519,15.85445
8946.304,15.84673
8952.09,15.8596
8957.875,15.84869
8963.661,15.87446
8969.446,15.87827
8975.231,15.86724
8981.018,15.89474
8986.803,15.89737
8992.588,15.90575
8998.374,15.90932
9004.159,15.94115
9009.944,15.93605
9015.73,15.95346
9021.516,15.96475
9027.301,15.97797
9033.087,16.01006
9038.872,15.99941
9044.657,16.01401
9050.443,16.01843
9056.229,16.02299
9062.014,16.04208
9067.8,16.02487
9073.585,16.05681
9079.37,16.05989
9085.156,16.06081
9090.941,16.07254
9096.727,16.06933
9102.513,16.09892
9108.298,16.07932
9114.084,16.08847
9119.869,16.07598
9125.654,16.07431
9131.44,16.07333
9137.226,16.07607
9143.011,16.05585
9148.797,16.05575
9154.582,16.04954
9160.367,16.06024
9166.153,16.0351
9171.938,16.01181
9177.724,16.01576
9183.51,16.01117
9189.295,15.98964
9195.08,15.98597
9200.866,15.97391
9206.651,15.98014
9212.437,15.96668
9218.223,15.95704
9224.008,15.94978
9229.793,15.94638
9235.579,15.92754
9241.364,15.93282
9247.15,15.93735
9252.936,15.9455
9258.721,15.91311
9264.507,15.92173
9270.292,15.91331
9276.077,15.88268
9281.863,15.88394
9287.648,15.87287
9293.434,15.88804
9299.22,15.86964
9305.005,15.89588
9310.79,15.89125
9316.576,15.89613
9322.361,15.88301
9328.146,15.90714
9333.933,15.90376
9339.718,15.89788
9345.503,15.89623
9351.289,15.89101
9357.074,15.84813
9362.859,15.85357
9368.646,15.84637
9374.431,15.81574
9380.217,15.79957
9386.002,15.79172
9391.787,15.75941
9397.573,15.72973
9403.358,15.73257
9409.144,15.71158
9414.93,15.69008
9420.715,15.65593
9426.5,15.64118
9432.286,15.61575
9438.071,15.58404
9443.856,15.5658
9449.643,15.53935
9455.428,15.5036
9461.213,15.46266
9466.999,15.4595
9472.784,15.42737
9478.569,15.40883
9484.355,15.40518
9490.141,15.38031
9495.926,15.36761
9501.712,15.35193
9507.497,15.35013
9513.282,15.3215
9519.068,15.29964
9524.854,15.31144
9530.64,15.27755
9536.425,15.25764
9542.21,15.24083
9547.996,15.2218
9553.781,15.21346
9559.566,15.17293
9565.353,15.1725
9571.138,15.13302
9576.923,15.13179
9582.709,15.08564
9588.494,15.09887
9594.279,15.09838
9600.065,15.08559
9605.851,15.09983
9611.636,15.1316
9617.422,15.18699
9623.207,15.21474
9628.992,15.22136
9634.778,15.27562
9640.563,15.28343
9646.349,15.34529
9652.135,15.38414
9657.92,15.44548
9663.706,15.4757
9669.491,15.52
9675.276,15.55355
9681.063,15.58304
9686.848,15.6543
9692.633,15.68287
9698.419,15.70293
9704.204,15.74504
9709.989,15.80599
9715.775,15.86111
9721.561,15.88502
9727.346,15.94928
9733.132,15.98622
9738.917,16.05098
9744.702,16.05215
9750.488,16.09479
9756.273,16.13769
9762.059,16.16905
9767.845,16.15705
9773.63,16.16307
9779.415,16.18839
9785.201,16.17329
9790.986,16.20323
9796.771,16.22308
9802.558,16.19961
9808.343,16.20967
9814.129,16.18983
9819.914,16.21242
9825.699,16.19358
9831.485,16.24176
9837.271,16.26174
9843.056,16.28088
9848.842,16.34265
9854.627,16.34975
9860.412,16.41734
9866.198,16.47499
9871.983,16.52513
9877.769,16.61843
9883.555,16.63659
9889.34,16.66377
9895.125,16.7135
9900.911,16.74315
9906.696,16.77196
9912.481,16.80424
9918.268,16.83355
9924.053,16.87267
9929.838,16.89464
9935.624,16.93607
9941.409,17.00502
9947.195,17.02904
9952.98,17.0291
9958.766,17.07071
9964.552,17.11134
9970.337,17.1186
9976.122,17.14276
9981.908,17.15491
9987.693,17.19557
9993.479,17.22575
9999.265,17.24853
10005.05,17.24065
10010.83,17.26542
10016.62,17.28604
10022.41,17.30195
10028.19,17.30477
10033.98,17.33535
10039.76,17.35472
10045.55,17.39095
10051.33,17.38276
10057.12,17.426
10062.9,17.42023
10068.69,17.43735
10074.48,17.48528
10080.26,17.48498
10086.05,17.48739
10091.83,17.50882
10097.62,17.52083
10103.4,17.49726
10109.19,17.51896
10114.97,17.51457
10120.76,17.53437
10126.54,17.56299
10132.33,17.5364
10138.12,17.59608
10143.9,17.56186
10149.69,17.55286
10155.47,17.58465
10161.26,17.57646
10167.04,17.60405
10172.83,17.55741
10178.61,17.54846
10184.4,17.60552
10190.19,17.60528
10195.97,17.62405
10201.76,17.61542
10207.54,17.57107
10213.33,17.60788
10219.11,17.62588
10224.9,17.59639
10230.68,17.58232
10236.47,17.60809
10242.25,17.58416
10248.04,17.58578
10253.83,17.58722
10259.61,17.59858
10265.4,17.59657
10271.18,17.58702
10276.97,17.56063
10282.75,17.54234
10288.54,17.57532
10294.32,17.58234
10300.11,17.57726
10305.9,17.58485
10311.68,17.54053
10317.47,17.525
10323.25,17.59193
10329.04,17.55283
10334.82,17.55742
10340.61,17.55145
10346.39,17.55255
10352.18,17.57162
10357.96,17.55767
10363.75,17.56169
10369.54,17.54056
10375.32,17.50927
10381.11,17.53348
10386.89,17.52973
10392.68,17.50221
10398.46,17.50781
10404.25,17.53871
10410.03,17.47792
10415.82,17.42238
10421.61,17.5138
10427.39,17.44872
10433.18,17.40615
10438.96,17.36914
10444.75,17.433
10450.53,17.34042
10456.32,17.38272
10462.1,17.36699
10467.89,17.32031
10473.67,17.29476
10479.46,17.27698
10485.25,17.2568
10491.03,17.25447
10496.82,17.16097
10502.6,17.1255
10508.39,17.11935
10514.17,17.11748
10519.96,17.02437
10525.74,16.93369
10531.53,16.95069
10537.32,16.89358
10543.1,16.85617
10548.89,16.78584
10554.67,16.7268
10560.46,16.62493
10566.24,16.57055
10572.03,16.51529
10577.81,16.36684
10583.6,16.3074
10589.38,16.23865
10595.17,16.12477
10600.96,16.00494
10606.74,15.92856
10612.53,15.78151
10618.31,15.66018
10624.1,15.54256
10629.88,15.45236
10635.67,15.24166
10641.45,15.13999
10647.24,15.03797
10653.03,14.91116
10658.81,14.71241
10664.6,14.57753
10670.38,14.50672
10676.17,14.37373
10681.95,14.2656
10687.74,14.13965
10693.52,14.10905
10699.31,14.02922
10705.09,14.02912
10710.88,13.95928
10716.67,13.91728
10722.45,13.93103
10728.24,13.91794
10734.02,13.93433
10739.81,13.9351
10745.59,13.93628
10751.38,14.00732
10757.16,14.11535
10762.95,14.19316
10768.74,14.23952
10774.52,14.29699
10780.31,14.40366
10786.09,14.44512
10791.88,14.53164
10797.66,14.66051
10803.45,14.79154
10809.23,14.87998
10815.02,15.00916
10820.8,15.07987
10826.59,15.16329
10832.38,15.29015
10838.16,15.4327
10843.95,15.528
10849.73,15.60043
10855.52,15.65931
10861.3,15.84166
10867.09,15.92426
10872.87,16.03093
10878.66,16.13524
10884.45,16.18789
10890.23,16.28445
10896.02,16.3295
10901.8,16.49795
10907.59,16.57525
10913.37,16.65343
10919.16,16.67593
10924.94,16.83431
10930.73,16.82542
10936.51,16.95133
10942.3,16.98371
10948.09,17.08324
10953.87,17.13259
10959.66,17.23097
10965.44,17.26054
10971.23,17.41515
10977.01,17.3954
10982.8,17.44643
10988.58,17.44064
10994.37,17.52675
11000.16,17.54589
11005.94,17.63933
11011.73,17.68835
11017.51,17.71407
11023.3,17.7382
11029.08,17.81556
11034.87,17.75449
11040.65,17.88999
11046.44,17.8583
11052.22,17.8706
11058.01,17.93591
11063.79,17.95172
11069.58,17.98427
11075.37,17.98489
11081.15,17.95611
11086.94,17.93598
11092.72,17.93276
11098.51,18.02019
11104.29,17.98931
11110.08,18.02538
11115.87,18.04827
11121.65,18.03952
11127.44,18.09318
11133.22,18.03827
11139.01,18.00707
11144.79,18.13221
11150.58,18.15045
11156.36,18.17291
11162.15,18.16278
11167.93,18.15032
11173.72,18.19966
11179.5,18.26642
11185.29,18.29268
11191.08,18.27591
11196.86,18.35973
11202.65,18.36681
11208.43,18.52003
11214.22,18.44289
11220.0,18.54794
11225.79,18.48926
11231.58,18.48994
11237.36,18.60253
11243.15,18.58933
11248.93,18.66559
11254.72,18.63619
11260.5,18.68461
11266.29,18.76036
11272.07,18.73294
11277.86,18.78332
11283.64,18.80514
11289.43,18.80197
11295.21,18.73011
11301.0,18.86377
11306.79,18.83707
11312.57,18.88845
11318.36,18.83623
11324.14,18.9123
11329.93,18.90225
11335.71,18.97727
11341.5,18.9005
11347.28,19.00934
11353.07,19.0591
11358.86,18.97476
11364.64,18.98122
11370.43,18.97016
11376.21,19.03712
11382.0,19.05956
11387.78,19.03506
11393.57,19.08336
11399.35,19.09287
11405.14,19.06232
11410.92,19.10807
11416.71,19.18349
11422.5,19.05737
11428.28,19.16318
11434.07,19.15436
11439.85,19.24714
11445.64,19.02866
11451.42,19.23808
11457.21,19.18316
11462.99,19.23407
11468.78,19.18622
11474.57,19.27264
11480.35,19.34141
11486.14,19.2589
11491.92,19.3123
11497.71,19.28435
11503.49,19.30155
11509.28,19.36953
11515.06,19.40363
11520.85,19.33907
11526.63,19.35239
11532.42,19.42027
11538.21,19.41497
11543.99,19.41718
11549.78,19.53134
11555.56,19.42254
11561.35,19.3939
11567.13,19.32589
11572.92,19.43459
11578.7,19.53208
11584.49,19.53204
11590.28,19.56434
11596.06,19.53643
11601.85,19.53621
11607.63,19.46339
11613.42,19.55919
11619.2,19.47999
11624.99,19.585
11630.77,19.45123
11636.56,19.55564
11642.34,19.5627
11648.13,19.45854
11653.92,19.54318
11659.7,19.67265
11665.49,19.40656
11671.27,19.60804
11677.06,19.54664
11682.84,19.55822
11688.63,19.55933
11694.41,19.62087
11700.2,19.45005
11705.99,19.56165
11711.77,19.56555
11717.56,19.61866
11723.34,19.58382
11729.13,19.41787
11734.91,19.50191
11740.7,19.64659
11746.48,19.60275
11752.27,19.57641
11758.05,19.46979
11763.84,19.68972
11769.63,19.66931
11775.41,19.68811
11781.2,19.58001
11786.98,19.46894
11792.77,19.49628
11798.55,19.5267
11804.34,19.4099
11810.12,19.56286
11815.91,19.65528
11821.7,19.45663
11827.48,19.56189
11833.27,19.70682
11839.05,19.65655
11844.84,19.7432
11850.62,19.52229
11856.41,19.66607
11862.19,19.71676
11867.98,19.87216
11873.76,19.70718
11879.55,19.90516
11885.34,19.68023
11891.12,19.82323
11896.91,19.78065
11902.69,19.82288
11908.48,19.88323
11914.26,19.65596
11920.05,19.99361
11925.83,19.97174
11931.62,19.89274
11937.41,19.95251
11943.19,19.8609
11948.98,20.04355
11954.76,20.01506
11960.55,20.22025
11966.33,19.94274
11972.12,19.7246
11977.9,20.03246
11983.69,19.83065
11989.47,20.11821
11995.26,19.87378
11999.12,20.03335