File: Data/NIR/N1473LDPE_6.csv
Wavenumber,Intensity
3999.706,2.287548
4005.491,2.287688
4011.277,2.286081
4017.062,2.289184
4022.848,2.296335
4028.633,2.293442
4034.419,2.301116
4040.204,2.302332
4045.99,2.305661
4051.775,2.304475
4057.561,2.310644
4063.346,2.308212
4069.132,2.312857
4074.917,2.313888
4080.703,2.317107
4086.488,2.319984
4092.274,2.314603
4098.059,2.319737
4103.845,2.320901
4109.63,2.320807
4115.416,2.325022
4121.201,2.321351
4126.987,2.325437
4132.772,2.327935
4138.558,2.322684
4144.343,2.328233
4150.129,2.325609
4155.914,2.327965
4161.7,2.325818
4167.485,2.331869
4173.271,2.335771
4179.056,2.342928
4184.842,2.34352
4190.627,2.349567
4196.413,2.352524
4202.198,2.365297
4207.983,2.364698
4213.769,2.372393
4219.555,2.380515
4225.34,2.382707
4231.125,2.386858
4236.911,2.390603
4242.697,2.391337
4248.482,2.390014
4254.268,2.394323
4260.053,2.398637
4265.838,2.403372
4271.624,2.407879
4277.41,2.416455
4283.195,2.411237
4288.98,2.414733
4294.766,2.413208
4300.552,2.416763
4306.337,2.418866
4312.123,2.407068
4317.908,2.406213
4323.693,2.401922
4329.479,2.405755
4335.265,2.411564
4341.05,2.411734
4346.835,2.414357
4352.621,2.420155
4358.407,2.418001
4364.192,2.420173
4369.978,2.43192
4375.763,2.427095
4381.548,2.429367
4387.334,2.430104
4393.12,2.433304
4398.905,2.440235
4404.69,2.437248
4410.476,2.452173
4416.262,2.461427
4422.047,2.472702
4427.833,2.487993
4433.618,2.503844
4439.403,2.525798
4445.189,2.540013
4450.975,2.560085
4456.76,2.582398
4462.545,2.608634
4468.331,2.622008
4474.116,2.646242
4479.902,2.666492
4485.688,2.686775
4491.473,2.708846
4497.258,2.72736
4503.044,2.7523
4508.83,2.776525
4514.615,2.801425
4520.4,2.826489
4526.186,2.845472
4531.971,2.875118
4537.757,2.90322
4543.542,2.931028
4549.328,2.964293
4555.113,2.990745
4560.899,3.025075
4566.685,3.051346
4572.47,3.078527
4578.255,3.102326
4584.041,3.119542
4589.826,3.143256
4595.612,3.157955
4601.397,3.169251
4607.183,3.182912
4612.968,3.193046
4618.754,3.210295
4624.539,3.221367
4630.325,3.234179
4636.11,3.24248
4641.896,3.243505
4647.681,3.2458
4653.467,3.242145
4659.252,3.222682
4665.038,3.20519
4670.823,3.213809
4676.609,3.247257
4682.394,3.275472
4688.18,3.292186
4693.965,3.301797
4699.751,3.306098
4705.536,3.305908
4711.322,3.305649
4717.107,3.298203
4722.893,3.28229
4728.678,3.271841
4734.464,3.263371
4740.249,3.258684
4746.035,3.251014
4751.82,3.243037
4757.605,3.234285
4763.391,3.222275
4769.177,3.205894
4774.962,3.186244
4780.748,3.176327
4786.533,3.172373
4792.319,3.161685
4798.104,3.156925
4803.89,3.145361
4809.675,3.129797
4815.46,3.112555
4821.246,3.095156
4827.032,3.082516
4832.817,3.069027
4838.603,3.050391
4844.388,3.0339
4850.174,3.005289
4855.959,2.988143
4861.745,2.973755
4867.53,2.959535
4873.315,2.958903
4879.101,2.966846
4884.887,2.972049
4890.672,2.981485
4896.458,2.983262
4902.243,2.991387
4908.028,2.992782
4913.814,2.999459
4919.6,2.996178
4925.385,2.991669
4931.17,2.99381
4936.956,2.988084
4942.742,2.986686
4948.527,2.975196
4954.313,2.941022
4960.098,2.905476
4965.883,2.887756
4971.669,2.898875
4977.455,2.910071
4983.24,2.923374
4989.025,2.93372
4994.811,2.957532
5000.597,2.977064
5006.382,2.990301
5012.167,3.002317
5017.953,3.002295
5023.738,3.010136
5029.524,3.015255
5035.31,3.021972
5041.095,3.023777
5046.88,3.025601
5052.666,3.024667
5058.451,3.011596
5064.237,3.006142
5070.022,3.005547
5075.808,3.006124
5081.593,3.009029
5087.379,3.005149
5093.165,2.997412
5098.95,2.994543
5104.735,2.998361
5110.521,3.004229
5116.307,3.008924
5122.092,3.012876
5127.877,3.019179
5133.663,3.022727
5139.448,3.017858
5145.234,3.014675
5151.02,3.008501
5156.805,3.00421
5162.59,3.002036
5168.376,3.000056
5174.161,3.000606
5179.947,2.998213
5185.732,2.995603
5191.518,2.993341
5197.303,2.99728
5203.089,3.006227
5208.874,2.994485
5214.66,2.998388
5220.445,3.001606
5226.231,3.002662
5232.016,3.005721
5237.802,3.00996
5243.587,3.019271
5249.373,3.010059
5255.158,3.015055
5260.944,3.023055
5266.729,3.019745
5272.515,3.01482
5278.3,3.018936
5284.086,3.020846
5289.871,3.02241
5295.657,3.016714
5301.442,3.010769
5307.228,3.004833
5313.013,3.01092
5318.799,3.025438
5324.584,3.038202
5330.37,3.039442
5336.155,3.046405
5341.94,3.026387
5347.726,2.995961
5353.512,2.975936
5359.297,2.9559
5365.083,2.937708
5370.868,2.92493
5376.654,2.914036
5382.439,2.911974
5388.225,2.888956
5394.01,2.882979
5399.796,2.862789
5405.581,2.842112
5411.367,2.825973
5417.152,2.7888
5422.938,2.784388
5428.723,2.777452
5434.509,2.772902
5440.294,2.769554
5446.08,2.75643
5451.865,2.752566
5457.65,2.747539
5463.436,2.745037
5469.222,2.736453
5475.007,2.733545
5480.792,2.720108
5486.578,2.713001
5492.363,2.70867
5498.149,2.708554
5503.935,2.710734
5509.72,2.710759
5515.505,2.721757
5521.291,2.72149
5527.077,2.720097
5532.862,2.71663
5538.647,2.711884
5544.433,2.713526
5550.219,2.709173
5556.004,2.709728
5561.79,2.713655
5567.575,2.723921
5573.36,2.73586
5579.146,2.748378
5584.932,2.758882
5590.717,2.760016
5596.502,2.760127
5602.288,2.748154
5608.073,2.734191
5613.859,2.720192
5619.645,2.702864
5625.43,2.692811
5631.215,2.680517
5637.001,2.661167
5642.786,2.645655
5648.572,2.620041
5654.357,2.59251
5660.143,2.576338
5665.929,2.577666
5671.714,2.580558
5677.5,2.58937
5683.285,2.603868
5689.07,2.616591
5694.856,2.630744
5700.642,2.646246
5706.427,2.670056
5712.212,2.68581
5717.998,2.684728
5723.783,2.670557
5729.569,2.636702
5735.354,2.622596
5741.14,2.613822
5746.925,2.593692
5752.711,2.579749
5758.496,2.565873
5764.282,2.553293
5770.067,2.549937
5775.853,2.544559
5781.638,2.543947
5787.424,2.548585
5793.209,2.558578
5798.995,2.562694
5804.78,2.56634
5810.566,2.572256
5816.352,2.577672
5822.137,2.58911
5827.922,2.601552
5833.708,2.609817
5839.493,2.629754
5845.279,2.65265
5851.064,2.677813
5856.85,2.720288
5862.635,2.778287
5868.421,2.851484
5874.206,2.94119
5879.992,3.039687
5885.777,3.148968
5891.563,3.243018
5897.348,3.305214
5903.134,3.362073
5908.919,3.438404
5914.705,3.542251
5920.49,3.685906
5926.276,3.841758
5932.061,4.001283
5937.847,4.143065
5943.632,4.267079
5949.418,4.384594
5955.203,4.49361
5960.989,4.603949
5966.774,4.721942
5972.56,4.839676
5978.345,4.938607
5984.131,5.041214
5989.916,5.137616
5995.702,5.217884
6001.487,5.305861
6007.272,5.379929
6013.058,5.458279
6018.844,5.53154
6024.629,5.607306
6030.415,5.668341
6036.2,5.730501
6041.985,5.781675
6047.771,5.834011
6053.557,5.882907
6059.342,5.927641
6065.128,5.969621
6070.913,6.005983
6076.698,6.039154
6082.484,6.067706
6088.27,6.092308
6094.055,6.123931
6099.841,6.137395
6105.626,6.163586
6111.412,6.184632
6117.197,6.20186
6122.982,6.235919
6128.768,6.267509
6134.554,6.304796
6140.339,6.336628
6146.125,6.366638
6151.91,6.398408
6157.695,6.4326
6163.481,6.467939
6169.267,6.496685
6175.052,6.529572
6180.837,6.56052
6186.623,6.580998
6192.408,6.598246
6198.194,6.621157
6203.979,6.64195
6209.765,6.654807
6215.551,6.673152
6221.336,6.690216
6227.121,6.70087
6232.907,6.7153
6238.692,6.725304
6244.478,6.728047
6250.264,6.739514
6256.049,6.748668
6261.834,6.754074
6267.62,6.755373
6273.405,6.762836
6279.191,6.771191
6284.977,6.771546
6290.762,6.778291
6296.547,6.784993
6302.333,6.787987
6308.118,6.789431
6313.904,6.792881
6319.689,6.785831
6325.475,6.778843
6331.26,6.776991
6337.046,6.770688
6342.831,6.7549
6348.617,6.742527
6354.402,6.720994
6360.188,6.709515
6365.974,6.680756
6371.759,6.649699
6377.544,6.622896
6383.33,6.607266
6389.115,6.605223
6394.901,6.586309
6400.687,6.569836
6406.472,6.536999
6412.257,6.488826
6418.043,6.452098
6423.828,6.429275
6429.614,6.419617
6435.399,6.398376
6441.185,6.355081
6446.97,6.304891
6452.756,6.248496
6458.541,6.181285
6464.327,6.078033
6470.112,5.92646
6475.897,5.747507
6481.684,5.646259
6487.469,5.652589
6493.254,5.700882
6499.04,5.753759
6504.825,5.797133
6510.61,5.846731
6516.396,5.877145
6522.182,5.900554
6527.967,5.921345
6533.753,5.939463
6539.538,5.963753
6545.324,5.978757
6551.109,5.99011
6556.895,5.999615
6562.68,6.011371
6568.466,6.029257
6574.251,6.048395
6580.037,6.060993
6585.822,6.076319
6591.607,6.076969
6597.393,6.081313
6603.179,6.082316
6608.964,6.080825
6614.75,6.076844
6620.535,6.07155
6626.32,6.063256
6632.106,6.052461
6637.892,6.042348
6643.677,6.022265
6649.463,6.005932
6655.248,5.988608
6661.034,5.970588
6666.819,5.949849
6672.604,5.924979
6678.39,5.901724
6684.176,5.874805
6689.961,5.840826
6695.747,5.818563
6701.532,5.783679
6707.317,5.74997
6713.103,5.714548
6718.889,5.681479
6724.674,5.640077
6730.459,5.610721
6736.245,5.577656
6742.03,5.541683
6747.816,5.513805
6753.602,5.479014
6759.387,5.439969
6765.173,5.405832
6770.958,5.368514
6776.743,5.313769
6782.529,5.266621
6788.314,5.211978
6794.1,5.149917
6799.886,5.081446
6805.671,5.020468
6811.457,4.966724
6817.242,4.896803
6823.027,4.840081
6828.813,4.767861
6834.599,4.717863
6840.384,4.678476
6846.169,4.651891
6851.955,4.624371
6857.74,4.584381
6863.526,4.554048
6869.312,4.52616
6875.097,4.480194
6880.882,4.440014
6886.668,4.390722
6892.453,4.348484
6898.239,4.304262
6904.024,4.265723
6909.81,4.236177
6915.596,4.205676
6921.381,4.163432
6927.166,4.117223
6932.952,4.061897
6938.737,4.000608
6944.523,3.94441
6950.309,3.907754
6956.094,3.885534
6961.879,3.887871
6967.665,3.883498
6973.45,3.873644
6979.236,3.874523
6985.021,3.86887
6990.807,3.853403
6996.592,3.834691
7002.378,3.810025
7008.163,3.781729
7013.949,3.760193
7019.734,3.732094
7025.52,3.726342
7031.305,3.720935
7037.091,3.723999
7042.876,3.726658
7048.662,3.681301
7054.447,3.62358
7060.232,3.563864
7066.019,3.560836
7071.804,3.617818
7077.589,3.712928
7083.375,3.782199
7089.16,3.834
7094.946,3.874463
7100.731,3.926625
7106.517,3.98838
7112.302,4.063836
7118.088,4.116132
7123.873,4.161725
7129.659,4.180746
7135.444,4.16599
7141.229,4.112705
7147.015,4.048541
7152.801,3.943831
7158.586,3.770602
7164.372,3.532584
7170.157,3.358091
7175.942,3.361641
7181.729,3.473724
7187.514,3.62303
7193.299,3.769059
7199.085,3.914456
7204.87,4.063189
7210.655,4.212075
7216.441,4.353061
7222.227,4.482354
7228.012,4.631941
7233.798,4.748471
7239.583,4.894537
7245.369,4.997324
7251.154,5.134537
7256.939,5.253248
7262.725,5.371769
7268.511,5.507573
7274.296,5.630592
7280.082,5.754251
7285.867,5.878033
7291.652,6.004508
7297.438,6.117371
7303.224,6.235607
7309.009,6.353187
7314.794,6.464335
7320.58,6.571244
7326.365,6.673097
7332.151,6.709625
7337.937,6.796092
7343.722,6.824286
7349.508,6.867479
7355.293,6.933211
7361.079,7.002524
7366.864,7.077661
7372.649,7.145014
7378.435,7.203412
7384.221,7.250034
7390.006,7.307112
7395.792,7.346243
7401.577,7.381843
7407.362,7.400378
7413.148,7.433066
7418.934,7.44957
7424.719,7.458755
7430.504,7.470409
7436.29,7.491015
7442.075,7.495382
7447.861,7.519428
7453.646,7.527005
7459.432,7.528036
7465.218,7.536615
7471.003,7.538361
7476.788,7.547057
7482.574,7.542487
7488.359,7.551093
7494.145,7.549391
7499.931,7.549284
7505.716,7.540466
7511.501,7.533227
7517.287,7.539436
7523.072,7.538484
7528.858,7.528191
7534.644,7.527789
7540.429,7.511773
7546.214,7.503772
7552.0,7.4958
7557.785,7.494589
7563.571,7.48293
7569.356,7.480939
7575.142,7.460008
7580.927,7.466461
7586.713,7.445972
7592.498,7.424426
7598.284,7.419401
7604.069,7.400281
7609.854,7.384457
7615.641,7.364901
7621.426,7.361502
7627.211,7.338966
7632.997,7.319359
7638.782,7.296473
7644.568,7.281014
7650.354,7.260681
7656.139,7.243516
7661.924,7.22733
7667.71,7.211075
7673.495,7.194861
7679.281,7.176933
7685.066,7.165626
7690.852,7.164936
7696.637,7.144921
7702.423,7.137918
7708.208,7.125149
7713.994,7.11414
7719.779,7.097336
7725.564,7.085691
7731.35,7.07438
7737.136,7.054668
7742.921,7.038972
7748.707,7.038811
7754.492,7.019304
7760.277,6.999662
7766.063,6.98834
7771.849,6.96312
7777.634,6.950945
7783.42,6.947274
7789.205,6.926842
7794.991,6.928995
7800.776,6.907485
7806.562,6.891113
7812.347,6.871499
7818.133,6.857966
7823.918,6.833016
7829.704,6.813774
7835.489,6.811792
7841.274,6.779268
7847.06,6.764279
7852.846,6.732265
7858.631,6.710814
7864.417,6.684979
7870.202,6.659637
7875.987,6.632964
7881.773,6.598032
7887.559,6.568039
7893.344,6.543137
7899.13,6.510489
7904.915,6.478784
7910.7,6.44506
7916.486,6.400135
7922.271,6.364135
7928.057,6.330127
7933.843,6.284632
7939.628,6.246916
7945.414,6.212518
7951.199,6.161944
7956.984,6.111856
7962.77,6.055885
7968.556,6.002302
7974.341,5.960806
7980.126,5.908221
7985.912,5.855461
7991.697,5.788837
7997.483,5.740363
8003.269,5.689166
8009.054,5.621011
8014.839,5.565461
8020.625,5.513366
8026.41,5.439624
8032.196,5.371903
8037.981,5.305752
8043.767,5.2215
8049.553,5.164832
8055.338,5.087417
8061.124,5.012153
8066.909,4.945084
8072.694,4.858735
8078.48,4.793095
8084.266,4.714482
8090.051,4.620408
8095.836,4.543282
8101.622,4.460193
8107.407,4.382571
8113.192,4.297615
8118.979,4.194276
8124.764,4.111716
8130.55,4.019458
8136.335,3.923759
8142.12,3.838347
8147.906,3.741512
8153.691,3.660341
8159.477,3.571298
8165.263,3.48636
8171.048,3.404533
8176.833,3.327468
8182.619,3.259123
8188.404,3.200228
8194.189,3.14636
8199.976,3.103905
8205.761,3.064397
8211.546,3.042042
8217.332,3.029495
8223.117,3.023712
8228.902,3.023338
8234.688,3.023801
8240.474,3.020999
8246.259,3.042892
8252.045,3.030119
8257.83,3.061784
8263.616,3.080462
8269.401,3.090956
8275.187,3.127016
8280.973,3.166557
8286.758,3.207555
8292.543,3.252517
8298.329,3.298569
8304.114,3.344223
8309.899,3.390709
8315.686,3.45582
8321.471,3.506442
8327.256,3.554558
8333.042,3.612049
8338.827,3.67192
8344.612,3.738907
8350.398,3.79112
8356.184,3.8664
8361.969,3.927057
8367.755,3.988692
8373.54,4.049901
8379.325,4.116231
8385.111,4.170301
8390.896,4.211052
8396.683,4.251019
8402.468,4.267093
8408.253,4.299808
8414.039,4.319643
8419.824,4.327027
8425.609,4.368268
8431.396,4.413145
8437.181,4.478791
8442.966,4.553716
8448.752,4.643617
8454.537,4.742112
8460.322,4.808252
8466.108,4.882632
8471.894,4.953969
8477.679,5.032509
8483.465,5.12064
8489.25,5.174389
8495.035,5.249446
8500.821,5.297408
8506.606,5.339284
8512.392,5.365754
8518.178,5.404162
8523.963,5.440786
8529.748,5.479266
8535.534,5.501619
8541.319,5.476337
8547.105,5.44266
8552.891,5.390732
8558.676,5.321085
8564.462,5.278553
8570.247,5.337263
8576.032,5.420773
8581.818,5.513668
8587.604,5.626191
8593.389,5.749095
8599.175,5.871754
8604.96,6.009478
8610.745,6.133195
8616.531,6.262816
8622.316,6.377848
8628.102,6.482196
8633.888,6.581648
8639.673,6.658865
8645.458,6.757739
8651.244,6.817084
8657.029,6.890491
8662.814,6.929222
8668.601,6.977381
8674.386,7.029236
8680.172,7.091935
8685.957,7.123958
8691.742,7.195882
8697.528,7.242951
8703.313,7.317217
8709.099,7.398233
8714.885,7.464723
8720.67,7.549717
8726.455,7.618614
8732.241,7.677251
8738.026,7.753092
8743.812,7.814977
8749.598,7.861673
8755.383,7.914177
8761.168,7.974432
8766.954,8.014738
8772.739,8.06077
8778.524,8.110336
8784.311,8.14864
8790.096,8.156936
8795.881,8.21885
8801.667,8.234806
8807.452,8.268733
8813.237,8.28444
8819.023,8.300961
8824.809,8.315687
8830.595,8.333097
8836.38,8.345391
8842.165,8.372261
8847.951,8.37555
8853.736,8.386798
8859.521,8.381831
8865.308,8.390318
8871.093,8.402772
8876.878,8.39854
8882.664,8.413269
8888.449,8.418943
8894.234,8.402479
8900.021,8.417322
8905.806,8.411135
8911.591,8.392444
8917.377,8.410875
8923.162,8.408472
8928.947,8.396304
8934.733,8.412799
8940.519,8.401767
8946.304,8.411357
8952.09,8.393805
8957.875,8.404236
8963.661,8.396273
8969.446,8.407537
8975.231,8.403565
8981.018,8.416282
8986.803,8.414073
8992.588,8.399461
8998.374,8.417792
9004.159,8.435228
9009.944,8.428209
9015.73,8.430234
9021.516,8.437668
9027.301,8.451862
9033.087,8.468868
9038.872,8.441093
9044.657,8.467972
9050.443,8.442311
9056.229,8.454717
9062.014,8.456854
9067.8,8.463365
9073.585,8.461039
9079.37,8.475994
9085.156,8.451443
9090.941,8.463711
9096.727,8.476941
9102.513,8.466671
9108.298,8.471205
9114.084,8.446645
9119.869,8.453762
9125.654,8.450846
9131.44,8.452352
9137.226,8.450008
9143.011,8.471211
9148.797,8.442272
9154.582,8.45144
9160.367,8.440193
9166.153,8.444967
9171.938,8.433161
9177.724,8.41893
9183.51,8.415504
9189.295,8.39518
9195.08,8.403177
9200.866,8.394243
9206.651,8.394623
9212.437,8.374582
9218.223,8.381232
9224.008,8.378644
9229.793,8.360662
9235.579,8.356205
9241.364,8.365764
9247.15,8.360269
9252.936,8.357116
9258.721,8.344503
9264.507,8.329985
9270.292,8.334467
9276.077,8.323944
9281.863,8.33334
9287.648,8.321482
9293.434,8.298535
9299.22,8.305556
9305.005,8.299274
9310.79,8.311299
9316.576,8.302529
9322.361,8.301044
9328.146,8.299622
9333.933,8.30514
9339.718,8.304914
9345.503,8.309565
9351.289,8.272188
9357.074,8.269598
9362.859,8.273225
9368.646,8.265203
9374.431,8.252439
9380.217,8.253856
9386.002,8.234527
9391.787,8.228675
9397.573,8.207424
9403.358,8.218784
9409.144,8.184806
9414.93,8.172845
9420.715,8.169472
9426.5,8.146448
9432.286,8.146305
9438.071,8.13803
9443.856,8.131873
9449.643,8.097017
9455.428,8.085952
9461.213,8.073505
9466.999,8.06169
9472.784,8.049939
9478.569,8.028447
9484.355,8.030098
9490.141,8.030404
9495.926,8.006838
9501.712,8.002069
9507.497,7.983552
9513.282,7.985793
9519.068,7.984046
9524.854,7.97014
9530.64,7.96166
9536.425,7.959431
9542.21,7.970475
9547.996,7.939638
9553.781,7.909484
9559.566,7.899374
9565.353,7.893393
9571.138,7.876616
9576.923,7.88559
9582.709,7.868806
9588.494,7.874898
9594.279,7.855962
9600.065,7.858263
9605.851,7.852785
9611.636,7.874881
9617.422,7.881709
9623.207,7.907029
9628.992,7.924362
9634.778,7.934959
9640.563,7.935561
9646.349,7.963217
9652.135,7.98338
9657.92,7.991918
9663.706,8.022719
9669.491,8.023993
9675.276,8.051205
9681.063,8.064181
9686.848,8.060785
9692.633,8.074444
9698.419,8.112554
9704.204,8.142753
9709.989,8.155165
9715.775,8.178818
9721.561,8.184154
9727.346,8.21427
9733.132,8.237796
9738.917,8.262454
9744.702,8.264117
9750.488,8.263131
9756.273,8.29803
9762.059,8.302221
9767.845,8.321944
9773.63,8.293967
9779.415,8.32293
9785.201,8.306067
9790.986,8.319675
9796.771,8.312134
9802.558,8.315185
9808.343,8.301771
9814.129,8.345023
9819.914,8.324012
9825.699,8.315695
9831.485,8.342456
9837.271,8.359225
9843.056,8.381991
9848.842,8.373069
9854.627,8.397733
9860.412,8.417428
9866.198,8.463721
9871.983,8.469738
9877.769,8.470145
9883.555,8.515676
9889.34,8.522471
9895.125,8.564317
9900.911,8.570065
9906.696,8.583046
9912.481,8.586664
9918.268,8.599379
9924.053,8.624227
9929.838,8.642782
9935.624,8.667124
9941.409,8.642341
9947.195,8.72226
9952.98,8.710138
9958.766,8.699587
9964.552,8.77638
9970.337,8.72833
9976.122,8.763425
9981.908,8.756969
9987.693,8.807967
9993.479,8.763402
9999.265,8.792316
10005.05,8.787239
10010.83,8.769001
10016.62,8.829932
10022.41,8.839366
10028.19,8.862528
10033.98,8.856079
10039.76,8.858684
10045.55,8.867751
10051.33,8.860476
10057.12,8.898645
10062.9,8.875787
10068.69,8.863577
10074.48,8.872769
10080.26,8.914001
10086.05,8.932014
10091.83,8.918051
10097.62,8.931043
10103.4,8.904522
10109.19,8.914099
10114.97,8.975822
10120.76,8.926687
10126.54,8.951221
10132.33,8.955125
10138.12,8.931647
10143.9,8.949687
10149.69,8.945171
10155.47,8.958338
10161.26,8.961628
10167.04,8.940007
10172.83,8.967644
10178.61,8.946571
10184.4,8.967461
10190.19,8.977394
10195.97,8.98812
10201.76,8.958403
10207.54,8.977631
10213.33,8.960659
10219.11,8.978375
10224.9,8.946897
10230.68,8.927485
10236.47,8.963462
10242.25,8.950841
10248.04,8.945417
10253.83,8.951119
10259.61,8.896956
10265.4,8.920563
10271.18,8.942868
10276.97,8.926697
10282.75,8.950694
10288.54,8.930924
10294.32,8.933954
10300.11,8.926946
10305.9,8.954902
10311.68,8.917911
10317.47,8.894721
10323.25,8.931754
10329.04,8.925123
10334.82,8.921254
10340.61,8.902216
10346.39,8.892103
10352.18,8.929069
10357.96,8.944234
10363.75,8.913157
10369.54,8.899816
10375.32,8.897714
10381.11,8.85646
10386.89,8.894363
10392.68,8.885685
10398.46,8.867146
10404.25,8.85654
10410.03,8.856254
10415.82,8.847763
10421.61,8.860106
10427.39,8.867109
10433.18,8.873961
10438.96,8.760938
10444.75,8.848489
10450.53,8.792461
10456.32,8.805138
10462.1,8.811195
10467.89,8.707978
10473.67,8.716973
10479.46,8.779286
10485.25,8.72523
10491.03,8.714759
10496.82,8.677917
10502.6,8.681227
10508.39,8.63776
10514.17,8.653387
10519.96,8.597392
10525.74,8.568233
10531.53,8.547681
10537.32,8.525166
10543.1,8.535593
10548.89,8.485084
10554.67,8.439397
10560.46,8.399365
10566.24,8.360177
10572.03,8.318786
10577.81,8.27723
10583.6,8.237807
10589.38,8.188297
10595.17,8.136144
10600.96,8.10582
10606.74,8.024194
10612.53,7.91709
10618.31,7.893453
10624.1,7.844873
10629.88,7.856522
10635.67,7.736435
10641.45,7.681501
10647.24,7.560474
10653.03,7.480251
10658.81,7.486775
10664.6,7.44918
10670.38,7.346417
10676.17,7.275939
10681.95,7.227038
10687.74,7.237585
10693.52,7.122544
10699.31,7.141238
10705.09,7.080017
10710.88,7.103038
10716.67,7.053312
10722.45,7.120357
10728.24,7.096169
10734.02,7.034084
10739.81,7.076775
10745.59,7.1086
10751.38,7.093269
10757.16,7.128912
10762.95,7.160944
10768.74,7.161863
10774.52,7.204466
10780.31,7.258727
10786.09,7.291233
10791.88,7.346879
10797.66,7.353611
10803.45,7.411481
10809.23,7.448676
10815.02,7.51562
10820.8,7.544915
10826.59,7.55012
10832.38,7.646052
10838.16,7.679695
10843.95,7.738741
10849.73,7.729512
10855.52,7.78299
10861.3,7.812557
10867.09,7.953426
10872.87,7.918585
10878.66,8.0109
10884.45,7.981071
10890.23,8.059146
10896.02,8.064317
10901.8,8.124152
10907.59,8.126899
10913.37,8.237553
10919.16,8.249806
10924.94,8.281438
10930.73,8.273466
10936.51,8.32863
10942.3,8.380938
10948.09,8.387396
10953.87,8.366302
10959.66,8.394684
10965.44,8.517781
10971.23,8.56202
10977.01,8.583223
10982.8,8.586821
10988.58,8.642056
10994.37,8.650912
11000.16,8.720924
11005.94,8.707549
11011.73,8.671611
11017.51,8.731199
11023.3,8.759376
11029.08,8.751
11034.87,8.82133
11040.65,8.83653
11046.44,8.842278
11052.22,8.832357
11058.01,8.837666
11063.79,8.849185
11069.58,8.880131
11075.37,8.928756
11081.15,8.851614
11086.94,8.885395
11092.72,8.945558
11098.51,8.917203
11104.29,8.930039
11110.08,8.945805
11115.87,8.86604
11121.65,8.912367
11127.44,9.080743
11133.22,8.975862
11139.01,9.032209
11144.79,9.012484
11150.58,8.950745
11156.36,8.963579
11162.15,9.058144
11167.93,9.027966
11173.72,9.021601
11179.5,9.038941
11185.29,9.062484
11191.08,9.073157
11196.86,9.059329
11202.65,9.050864
11208.43,9.218692
11214.22,9.156454
11220.0,9.146099
11225.79,9.147039
11231.58,9.173859
11237.36,9.150584
11243.15,9.273772
11248.93,9.213552
11254.72,9.274894
11260.5,9.214454
11266.29,9.224972
11272.07,9.232659
11277.86,9.262659
11283.64,9.352983
11289.43,9.329268
11295.21,9.308701
11301.0,9.330912
11306.79,9.250613
11312.57,9.317999
11318.36,9.300564
11324.14,9.289642
11329.93,9.327904
11335.71,9.38743
11341.5,9.318684
11347.28,9.299191
11353.07,9.396908
11358.86,9.35018
11364.64,9.487815
11370.43,9.438163
11376.21,9.396675
11382.0,9.443313
11387.78,9.379248
11393.57,9.373023
11399.35,9.456899
11405.14,9.488252
11410.92,9.449106
11416.71,9.450128
11422.5,9.466843
11428.28,9.449118
11434.07,9.45888
11439.85,9.390588
11445.64,9.473076
11451.42,9.479185
11457.21,9.44182
11462.99,9.572167
11468.78,9.489718
11474.57,9.489184
11480.35,9.546593
11486.14,9.416257
11491.92,9.49299
11497.71,9.5508
11503.49,9.527751
11509.28,9.497396
11515.06,9.451656
11520.85,9.433759
11526.63,9.514477
11532.42,9.618349
11538.21,9.496443
11543.99,9.434427
11549.78,9.545156
11555.56,9.440722
11561.35,9.520295
11567.13,9.541132
11572.92,9.512394
11578.7,9.590724
11584.49,9.623996
11590.28,9.531017
11596.06,9.558525
11601.85,9.516734
11607.63,9.525064
11613.42,9.601656
11619.2,9.638088
11624.99,9.611611
11630.77,9.521992
11636.56,9.71183
11642.34,9.505529
11648.13,9.540599
11653.92,9.583192
11659.7,9.543919
11665.49,9.495696
11671.27,9.56252
11677.06,9.592794
11682.84,9.672051
11688.63,9.57691
11694.41,9.642633
11700.2,9.610085
11705.99,9.566462
11711.77,9.633521
11717.56,9.553127
11723.34,9.696308
11729.13,9.5948
11734.91,9.655124
11740.7,9.605378
11746.48,9.599107
11752.27,9.517658
11758.05,9.487917
11763.84,9.59958
11769.63,9.429837
11775.41,9.590352
11781.2,9.545162
11786.98,9.508017
11792.77,9.544284
11798.55,9.568329
11804.34,9.600007
11810.12,9.7296
11815.91,9.568267
11821.7,9.619304
11827.48,9.656635
11833.27,9.544989
11839.05,9.530477
11844.84,9.536999
11850.62,9.595058
11856.41,9.636105
11862.19,9.575841
11867.98,9.589551
11873.76,9.658138
11879.55,9.506609
11885.34,9.562695
11891.12,9.507667
11896.91,9.596075
11902.69,9.626677
11908.48,9.649384
11914.26,9.763822
11920.05,9.579714
11925.83,9.53809
11931.62,9.733214
11937.41,9.601963
11943.19,9.572334
11948.98,9.62984
11954.76,9.673082
11960.55,9.688516
11966.33,9.642604
11972.12,9.568892
11977.9,9.633366
11983.69,9.63604
11989.47,9.467844
11995.26,9.735248
11999.12,9.589207