File: Data/NIR/N1476LDPE_5.csv
Wavenumber,Intensity
3999.706,3.617566
4005.491,3.622866
4011.277,3.618205
4017.062,3.625694
4022.848,3.621798
4028.633,3.631003
4034.419,3.644063
4040.204,3.638378
4045.99,3.648857
4051.775,3.651643
4057.561,3.649851
4063.346,3.649808
4069.132,3.657952
4074.917,3.661295
4080.703,3.664219
4086.488,3.669428
4092.274,3.664996
4098.059,3.669953
4103.845,3.668804
4109.63,3.66994
4115.416,3.677476
4121.201,3.673325
4126.987,3.673012
4132.772,3.680045
4138.558,3.676305
4144.343,3.682545
4150.129,3.683658
4155.914,3.686046
4161.7,3.686085
4167.485,3.689113
4173.271,3.696231
4179.056,3.702178
4184.842,3.710697
4190.627,3.717475
4196.413,3.726959
4202.198,3.741187
4207.983,3.745194
4213.769,3.758481
4219.555,3.764372
4225.34,3.770496
4231.125,3.781809
4236.911,3.784052
4242.697,3.789647
4248.482,3.786905
4254.268,3.793274
4260.053,3.797782
4265.838,3.806914
4271.624,3.813465
4277.41,3.82175
4283.195,3.819352
4288.98,3.823122
4294.766,3.828262
4300.552,3.831086
4306.337,3.828625
4312.123,3.820949
4317.908,3.822021
4323.693,3.816397
4329.479,3.819724
4335.265,3.825972
4341.05,3.82358
4346.835,3.832141
4352.621,3.835108
4358.407,3.835565
4364.192,3.837404
4369.978,3.847096
4375.763,3.850711
4381.548,3.859456
4387.334,3.865399
4393.12,3.882587
4398.905,3.903275
4404.69,3.935354
4410.476,3.981305
4416.262,4.040426
4422.047,4.096745
4427.833,4.152118
4433.618,4.20763
4439.403,4.267694
4445.189,4.323443
4450.975,4.395555
4456.76,4.463858
4462.545,4.530643
4468.331,4.587793
4474.116,4.642476
4479.902,4.7048
4485.688,4.758617
4491.473,4.812671
4497.258,4.868748
4503.044,4.925596
4508.83,4.99082
4514.615,5.047929
4520.4,5.10411
4526.186,5.156846
4531.971,5.218231
4537.757,5.280103
4543.542,5.343348
4549.328,5.410362
4555.113,5.477027
4560.899,5.543558
4566.685,5.607903
4572.47,5.659258
4578.255,5.706681
4584.041,5.747205
4589.826,5.786111
4595.612,5.812739
4601.397,5.835423
4607.183,5.86283
4612.968,5.88421
4618.754,5.908147
4624.539,5.934916
4630.325,5.958091
4636.11,5.973767
4641.896,5.975879
4647.681,5.976195
4653.467,5.959871
4659.252,5.919897
4665.038,5.87071
4670.823,5.886481
4676.609,5.958433
4682.394,6.021358
4688.18,6.05187
4693.965,6.073518
4699.751,6.081182
4705.536,6.078115
4711.322,6.071566
4717.107,6.054848
4722.893,6.024967
4728.678,5.991999
4734.464,5.972792
4740.249,5.955139
4746.035,5.942547
4751.82,5.922122
4757.605,5.902928
4763.391,5.879665
4769.177,5.839097
4774.962,5.79373
4780.748,5.769148
4786.533,5.754691
4792.319,5.742084
4798.104,5.728686
4803.89,5.703537
4809.675,5.668767
4815.46,5.624615
4821.246,5.589024
4827.032,5.555956
4832.817,5.526525
4838.603,5.487028
4844.388,5.443351
4850.174,5.387343
4855.959,5.342716
4861.745,5.308799
4867.53,5.285722
4873.315,5.28233
4879.101,5.297381
4884.887,5.318009
4890.672,5.329928
4896.458,5.341995
4902.243,5.358354
4908.028,5.366558
4913.814,5.366995
4919.6,5.364817
4925.385,5.363359
4931.17,5.360384
4936.956,5.352475
4942.742,5.341839
4948.527,5.310009
4954.313,5.238352
4960.098,5.147128
4965.883,5.115962
4971.669,5.14734
4977.455,5.173591
4983.24,5.20106
4989.025,5.240286
4994.811,5.289118
5000.597,5.341774
5006.382,5.381595
5012.167,5.400597
5017.953,5.402014
5023.738,5.424134
5029.524,5.441206
5035.31,5.452847
5041.095,5.457343
5046.88,5.457973
5052.666,5.45157
5058.451,5.421886
5064.237,5.414407
5070.022,5.41071
5075.808,5.411654
5081.593,5.407043
5087.379,5.396369
5093.165,5.384907
5098.95,5.383043
5104.735,5.386076
5110.521,5.403252
5116.307,5.418124
5122.092,5.430916
5127.877,5.441444
5133.663,5.449256
5139.448,5.440233
5145.234,5.429505
5151.02,5.409374
5156.805,5.403555
5162.59,5.392754
5168.376,5.390176
5174.161,5.391207
5179.947,5.386927
5185.732,5.388266
5191.518,5.380812
5197.303,5.398688
5203.089,5.39481
5208.874,5.414277
5214.66,5.386677
5220.445,5.397598
5226.231,5.424425
5232.016,5.417776
5237.802,5.416062
5243.587,5.441325
5249.373,5.455117
5255.158,5.456905
5260.944,5.452627
5266.729,5.453682
5272.515,5.438733
5278.3,5.437252
5284.086,5.448145
5289.871,5.45738
5295.657,5.432772
5301.442,5.421664
5307.228,5.41252
5313.013,5.413113
5318.799,5.467846
5324.584,5.492215
5330.37,5.499183
5336.155,5.48521
5341.94,5.444191
5347.726,5.402079
5353.512,5.358256
5359.297,5.292687
5365.083,5.262656
5370.868,5.214203
5376.654,5.205159
5382.439,5.169306
5388.225,5.151377
5394.01,5.128748
5399.796,5.064552
5405.581,5.022056
5411.367,4.977005
5417.152,4.888386
5422.938,4.857705
5428.723,4.859022
5434.509,4.830702
5440.294,4.817798
5446.08,4.81285
5451.865,4.782948
5457.65,4.767938
5463.436,4.758216
5469.222,4.739618
5475.007,4.723939
5480.792,4.683622
5486.578,4.65421
5492.363,4.653969
5498.149,4.645342
5503.935,4.656522
5509.72,4.666549
5515.505,4.677293
5521.291,4.685029
5527.077,4.680713
5532.862,4.676031
5538.647,4.669309
5544.433,4.658162
5550.219,4.655384
5556.004,4.654324
5561.79,4.667302
5567.575,4.699706
5573.36,4.741124
5579.146,4.781395
5584.932,4.815814
5590.717,4.827116
5596.502,4.811404
5602.288,4.782969
5608.073,4.735101
5613.859,4.692637
5619.645,4.64357
5625.43,4.60182
5631.215,4.560787
5637.001,4.512379
5642.786,4.450303
5648.572,4.351612
5654.357,4.229628
5660.143,4.15161
5665.929,4.142203
5671.714,4.180455
5677.5,4.236587
5683.285,4.288553
5689.07,4.337627
5694.856,4.39684
5700.642,4.466199
5706.427,4.539344
5712.212,4.591287
5717.998,4.590896
5723.783,4.51539
5729.569,4.381599
5735.354,4.335646
5741.14,4.295982
5746.925,4.224325
5752.711,4.158707
5758.496,4.109145
5764.282,4.067548
5770.067,4.046687
5775.853,4.044193
5781.638,4.050445
5787.424,4.063634
5793.209,4.079752
5798.995,4.100958
5804.78,4.126543
5810.566,4.151758
5816.352,4.182111
5822.137,4.220525
5827.922,4.268873
5833.708,4.324798
5839.493,4.395341
5845.279,4.486011
5851.064,4.598731
5856.85,4.769919
5862.635,4.974821
5868.421,5.205977
5874.206,5.465318
5879.992,5.720357
5885.777,5.963028
5891.563,6.16655
5897.348,6.320453
5903.134,6.448793
5908.919,6.602467
5914.705,6.790573
5920.49,7.022969
5926.276,7.258137
5932.061,7.489447
5937.847,7.69847
5943.632,7.87862
5949.418,8.0529
5955.203,8.223464
5960.989,8.402183
5966.774,8.597241
5972.56,8.791535
5978.345,8.963434
5984.131,9.129212
5989.916,9.280768
5995.702,9.412519
6001.487,9.552151
6007.272,9.672642
6013.058,9.793703
6018.844,9.907997
6024.629,10.02062
6030.415,10.12008
6036.2,10.21021
6041.985,10.29037
6047.771,10.37131
6053.557,10.44205
6059.342,10.51078
6065.128,10.57207
6070.913,10.6293
6076.698,10.67701
6082.484,10.72292
6088.27,10.76317
6094.055,10.8124
6099.841,10.84292
6105.626,10.87793
6111.412,10.90847
6117.197,10.94097
6122.982,10.98425
6128.768,11.02177
6134.554,11.0629
6140.339,11.10409
6146.125,11.14428
6151.91,11.17479
6157.695,11.2086
6163.481,11.25439
6169.267,11.28914
6175.052,11.33028
6180.837,11.36597
6186.623,11.38558
6192.408,11.41108
6198.194,11.43786
6203.979,11.46165
6209.765,11.48284
6215.551,11.4979
6221.336,11.52018
6227.121,11.53934
6232.907,11.55754
6238.692,11.56735
6244.478,11.57298
6250.264,11.58316
6256.049,11.59005
6261.834,11.598
6267.62,11.609
6273.405,11.61472
6279.191,11.62652
6284.977,11.62696
6290.762,11.63711
6296.547,11.64084
6302.333,11.64487
6308.118,11.64472
6313.904,11.65343
6319.689,11.64886
6325.475,11.63533
6331.26,11.62768
6337.046,11.61997
6342.831,11.60033
6348.617,11.57777
6354.402,11.5542
6360.188,11.53006
6365.974,11.49367
6371.759,11.44092
6377.544,11.4048
6383.33,11.3764
6389.115,11.36798
6394.901,11.35574
6400.687,11.32047
6406.472,11.27193
6412.257,11.20387
6418.043,11.14951
6423.828,11.11964
6429.614,11.09818
6435.399,11.06377
6441.185,11.00775
6446.97,10.9209
6452.756,10.83495
6458.541,10.72454
6464.327,10.57543
6470.112,10.33762
6475.897,10.0617
6481.684,9.897191
6487.469,9.914873
6493.254,9.997628
6499.04,10.10068
6504.825,10.17675
6510.61,10.25624
6516.396,10.31154
6522.182,10.35118
6527.967,10.39418
6533.753,10.43093
6539.538,10.46151
6545.324,10.4868
6551.109,10.52138
6556.895,10.53804
6562.68,10.56461
6568.466,10.59573
6574.251,10.62662
6580.037,10.65674
6585.822,10.6688
6591.607,10.68348
6597.393,10.69017
6603.179,10.69678
6608.964,10.69778
6614.75,10.69426
6620.535,10.68492
6626.32,10.67609
6632.106,10.66332
6637.892,10.64862
6643.677,10.62224
6649.463,10.60365
6655.248,10.57587
6661.034,10.55005
6666.819,10.51858
6672.604,10.48275
6678.39,10.4516
6684.176,10.41097
6689.961,10.3664
6695.747,10.32509
6701.532,10.27688
6707.317,10.22525
6713.103,10.16795
6718.889,10.11278
6724.674,10.05796
6730.459,10.01076
6736.245,9.958587
6742.03,9.909799
6747.816,9.862832
6753.602,9.81393
6759.387,9.755262
6765.173,9.705467
6770.958,9.645677
6776.743,9.567677
6782.529,9.478034
6788.314,9.397619
6794.1,9.295351
6799.886,9.187927
6805.671,9.085596
6811.457,8.988439
6817.242,8.884792
6823.027,8.774405
6828.813,8.660428
6834.599,8.571445
6840.384,8.510328
6846.169,8.466084
6851.955,8.419419
6857.74,8.362326
6863.526,8.31016
6869.312,8.256165
6875.097,8.19191
6880.882,8.113544
6886.668,8.041801
6892.453,7.966389
6898.239,7.887022
6904.024,7.839774
6909.81,7.784108
6915.596,7.732607
6921.381,7.653966
6927.166,7.573329
6932.952,7.475387
6938.737,7.367769
6944.523,7.257911
6950.309,7.192043
6956.094,7.171983
6961.879,7.170174
6967.665,7.173729
6973.45,7.172152
6979.236,7.164768
6985.021,7.155324
6990.807,7.117619
6996.592,7.079566
7002.378,7.040124
7008.163,6.981355
7013.949,6.924682
7019.734,6.869702
7025.52,6.851318
7031.305,6.834402
7037.091,6.812101
7042.876,6.763859
7048.662,6.661428
7054.447,6.527072
7060.232,6.41399
7066.019,6.417262
7071.804,6.597496
7077.589,6.805611
7083.375,6.97895
7089.16,7.098204
7094.946,7.195777
7100.731,7.273424
7106.517,7.405297
7112.302,7.523367
7118.088,7.661716
7123.873,7.728784
7129.659,7.761856
7135.444,7.734623
7141.229,7.656969
7147.015,7.528358
7152.801,7.327277
7158.586,6.97828
7164.372,6.520897
7170.157,6.184906
7175.942,6.177634
7181.729,6.474138
7187.514,6.762533
7193.299,7.066756
7199.085,7.346593
7204.87,7.655194
7210.655,7.888463
7216.441,8.116172
7222.227,8.360279
7228.012,8.615664
7233.798,8.878312
7239.583,9.047584
7245.369,9.272958
7251.154,9.474745
7256.939,9.671725
7262.725,9.897631
7268.511,10.08411
7274.296,10.28116
7280.082,10.46183
7285.867,10.65284
7291.652,10.81542
7297.438,10.99621
7303.224,11.1665
7309.009,11.35759
7314.794,11.52063
7320.58,11.65003
7326.365,11.79789
7332.151,11.88972
7337.937,11.96073
7343.722,12.08308
7349.508,12.12939
7355.293,12.21727
7361.079,12.28103
7366.864,12.35555
7372.649,12.41778
7378.435,12.49094
7384.221,12.55297
7390.006,12.61633
7395.792,12.6553
7401.577,12.68675
7407.362,12.71791
7413.148,12.74342
7418.934,12.77273
7424.719,12.7832
7430.504,12.80333
7436.29,12.81511
7442.075,12.82584
7447.861,12.85555
7453.646,12.8637
7459.432,12.86989
7465.218,12.88028
7471.003,12.88642
7476.788,12.90056
7482.574,12.89477
7488.359,12.89511
7494.145,12.89977
7499.931,12.89952
7505.716,12.88941
7511.501,12.88216
7517.287,12.87941
7523.072,12.88045
7528.858,12.87295
7534.644,12.86607
7540.429,12.85609
7546.214,12.84479
7552.0,12.8284
7557.785,12.82274
7563.571,12.81971
7569.356,12.80242
7575.142,12.78771
7580.927,12.78124
7586.713,12.75753
7592.498,12.75098
7598.284,12.72686
7604.069,12.70687
7609.854,12.69141
7615.641,12.6679
7621.426,12.6441
7627.211,12.62512
7632.997,12.59091
7638.782,12.5711
7644.568,12.5429
7650.354,12.52493
7656.139,12.49763
7661.924,12.47256
7667.71,12.45729
7673.495,12.43336
7679.281,12.42046
7685.066,12.39469
7690.852,12.38474
7696.637,12.3774
7702.423,12.35923
7708.208,12.33824
7713.994,12.32283
7719.779,12.31233
7725.564,12.28099
7731.35,12.28411
7737.136,12.25948
7742.921,12.24444
7748.707,12.23736
7754.492,12.21486
7760.277,12.18018
7766.063,12.16738
7771.849,12.14429
7777.634,12.1247
7783.42,12.1107
7789.205,12.10111
7794.991,12.09425
7800.776,12.06901
7806.562,12.03819
7812.347,12.016
7818.133,12.0083
7823.918,11.97164
7829.704,11.94282
7835.489,11.93659
7841.274,11.89749
7847.06,11.87358
7852.846,11.84282
7858.631,11.80702
7864.417,11.77218
7870.202,11.73132
7875.987,11.69865
7881.773,11.64911
7887.559,11.60119
7893.344,11.56089
7899.13,11.48651
7904.915,11.46168
7910.7,11.42634
7916.486,11.36562
7922.271,11.30674
7928.057,11.24962
7933.843,11.18904
7939.628,11.13163
7945.414,11.07699
7951.199,10.99743
7956.984,10.93135
7962.77,10.85072
7968.556,10.77158
7974.341,10.71148
7980.126,10.62024
7985.912,10.53536
7991.697,10.4656
7997.483,10.37645
8003.269,10.29063
8009.054,10.19091
8014.839,10.0953
8020.625,10.00707
8026.41,9.89399
8032.196,9.792758
8037.981,9.685575
8043.767,9.562257
8049.553,9.456275
8055.338,9.343215
8061.124,9.213166
8066.909,9.100984
8072.694,8.961755
8078.48,8.839653
8084.266,8.708736
8090.051,8.571054
8095.836,8.435805
8101.622,8.298126
8107.407,8.148837
8113.192,7.989899
8118.979,7.834714
8124.764,7.669168
8130.55,7.50864
8136.335,7.34155
8142.12,7.181962
8147.906,7.024621
8153.691,6.861614
8159.477,6.684741
8165.263,6.527021
8171.048,6.359123
8176.833,6.203948
8182.619,6.052765
8188.404,5.934768
8194.189,5.819844
8199.976,5.729158
8205.761,5.644099
8211.546,5.588517
8217.332,5.561782
8223.117,5.554989
8228.902,5.557905
8234.688,5.571179
8240.474,5.579608
8246.259,5.599953
8252.045,5.606228
8257.83,5.641402
8263.616,5.698465
8269.401,5.752064
8275.187,5.824107
8280.973,5.910049
8286.758,5.994696
8292.543,6.102144
8298.329,6.215014
8304.114,6.312536
8309.899,6.431221
8315.686,6.531795
8321.471,6.635244
8327.256,6.747123
8333.042,6.852119
8338.827,6.971258
8344.612,7.097896
8350.398,7.233683
8356.184,7.365815
8361.969,7.503373
8367.755,7.642854
8373.54,7.743821
8379.325,7.881957
8385.111,7.979818
8390.896,8.072443
8396.683,8.14299
8402.468,8.184093
8408.253,8.213677
8414.039,8.230039
8419.824,8.223543
8425.609,8.277811
8431.396,8.335248
8437.181,8.45825
8442.966,8.581351
8448.752,8.75278
8454.537,8.913825
8460.322,9.034104
8466.108,9.139024
8471.894,9.257309
8477.679,9.398602
8483.465,9.53233
8489.25,9.648988
8495.035,9.755287
8500.821,9.837985
8506.606,9.900294
8512.392,9.945573
8518.178,10.01066
8523.963,10.06049
8529.748,10.10408
8535.534,10.13251
8541.319,10.10003
8547.105,10.02223
8552.891,9.905602
8558.676,9.776518
8564.462,9.702806
8570.247,9.789574
8576.032,9.933486
8581.818,10.09003
8587.604,10.30917
8593.389,10.52149
8599.175,10.73091
8604.96,10.94156
8610.745,11.15007
8616.531,11.3405
8622.316,11.5141
8628.102,11.68808
8633.888,11.81989
8639.673,11.95477
8645.458,12.0918
8651.244,12.19366
8657.029,12.30438
8662.814,12.37881
8668.601,12.45261
8674.386,12.51259
8680.172,12.61347
8685.957,12.6746
8691.742,12.76294
8697.528,12.83606
8703.313,12.94898
8709.099,13.04066
8714.885,13.13002
8720.67,13.23484
8726.455,13.32171
8732.241,13.40942
8738.026,13.49993
8743.812,13.58703
8749.598,13.64476
8755.383,13.71592
8761.168,13.79748
8766.954,13.85883
8772.739,13.92324
8778.524,13.95997
8784.311,14.00742
8790.096,14.0336
8795.881,14.08862
8801.667,14.11352
8807.452,14.15564
8813.237,14.17805
8819.023,14.20283
8824.809,14.20404
8830.595,14.23427
8836.38,14.25826
8842.165,14.26517
8847.951,14.2742
8853.736,14.27829
8859.521,14.30159
8865.308,14.31043
8871.093,14.32753
8876.878,14.31938
8882.664,14.32061
8888.449,14.318
8894.234,14.32969
8900.021,14.32551
8905.806,14.32691
8911.591,14.3261
8917.377,14.31721
8923.162,14.31392
8928.947,14.31836
8934.733,14.29887
8940.519,14.32362
8946.304,14.30701
8952.09,14.30609
8957.875,14.31529
8963.661,14.31421
8969.446,14.31812
8975.231,14.32019
8981.018,14.31989
8986.803,14.34404
8992.588,14.32853
8998.374,14.34382
9004.159,14.36357
9009.944,14.35754
9015.73,14.35689
9021.516,14.38281
9027.301,14.38261
9033.087,14.40003
9038.872,14.38238
9044.657,14.40873
9050.443,14.38836
9056.229,14.39569
9062.014,14.4125
9067.8,14.42181
9073.585,14.42471
9079.37,14.40271
9085.156,14.41121
9090.941,14.41798
9096.727,14.43793
9102.513,14.43927
9108.298,14.43036
9114.084,14.43127
9119.869,14.41251
9125.654,14.41525
9131.44,14.42806
9137.226,14.4239
9143.011,14.42136
9148.797,14.39581
9154.582,14.41482
9160.367,14.39053
9166.153,14.38906
9171.938,14.37313
9177.724,14.36006
9183.51,14.37259
9189.295,14.34772
9195.08,14.35461
9200.866,14.34481
9206.651,14.34169
9212.437,14.34
9218.223,14.322
9224.008,14.31908
9229.793,14.2984
9235.579,14.31826
9241.364,14.30264
9247.15,14.2932
9252.936,14.30703
9258.721,14.29948
9264.507,14.27233
9270.292,14.27149
9276.077,14.27799
9281.863,14.26648
9287.648,14.24659
9293.434,14.2333
9299.22,14.25797
9305.005,14.25638
9310.79,14.2622
9316.576,14.25806
9322.361,14.25301
9328.146,14.25183
9333.933,14.25478
9339.718,14.26649
9345.503,14.24766
9351.289,14.20801
9357.074,14.22509
9362.859,14.23225
9368.646,14.19254
9374.431,14.20122
9380.217,14.19183
9386.002,14.16238
9391.787,14.15743
9397.573,14.14378
9403.358,14.13579
9409.144,14.11225
9414.93,14.09713
9420.715,14.07966
9426.5,14.0661
9432.286,14.03789
9438.071,14.03324
9443.856,14.02094
9449.643,13.97644
9455.428,13.97828
9461.213,13.95822
9466.999,13.93699
9472.784,13.91929
9478.569,13.8915
9484.355,13.8999
9490.141,13.88389
9495.926,13.86859
9501.712,13.87331
9507.497,13.83847
9513.282,13.84782
9519.068,13.85554
9524.854,13.83757
9530.64,13.79386
9536.425,13.78651
9542.21,13.79867
9547.996,13.76788
9553.781,13.76766
9559.566,13.71982
9565.353,13.72749
9571.138,13.70777
9576.923,13.71205
9582.709,13.68467
9588.494,13.67815
9594.279,13.65612
9600.065,13.66124
9605.851,13.70169
9611.636,13.68487
9617.422,13.71996
9623.207,13.73578
9628.992,13.74912
9634.778,13.78785
9640.563,13.78568
9646.349,13.80728
9652.135,13.85735
9657.92,13.89204
9663.706,13.91976
9669.491,13.94533
9675.276,13.9712
9681.063,13.99575
9686.848,14.01851
9692.633,14.02042
9698.419,14.05046
9704.204,14.07233
9709.989,14.10548
9715.775,14.12875
9721.561,14.18435
9727.346,14.20374
9733.132,14.24813
9738.917,14.24734
9744.702,14.27547
9750.488,14.26955
9756.273,14.32127
9762.059,14.31052
9767.845,14.34128
9773.63,14.32723
9779.415,14.33656
9785.201,14.33533
9790.986,14.35243
9796.771,14.34361
9802.558,14.36724
9808.343,14.34098
9814.129,14.37552
9819.914,14.33505
9825.699,14.33319
9831.485,14.35389
9837.271,14.38138
9843.056,14.4153
9848.842,14.42303
9854.627,14.47156
9860.412,14.48267
9866.198,14.5255
9871.983,14.53064
9877.769,14.55562
9883.555,14.62636
9889.34,14.59379
9895.125,14.64454
9900.911,14.69869
9906.696,14.70399
9912.481,14.68561
9918.268,14.7018
9924.053,14.73591
9929.838,14.73494
9935.624,14.77219
9941.409,14.78014
9947.195,14.83068
9952.98,14.8356
9958.766,14.84926
9964.552,14.87023
9970.337,14.88322
9976.122,14.91419
9981.908,14.87871
9987.693,14.93389
9993.479,14.93061
9999.265,14.94731
10005.05,14.95165
10010.83,14.93826
10016.62,14.97298
10022.41,14.98242
10028.19,15.02165
10033.98,15.01958
10039.76,15.03726
10045.55,15.04597
10051.33,15.07389
10057.12,15.07065
10062.9,15.06176
10068.69,15.05592
10074.48,15.1051
10080.26,15.07099
10086.05,15.12669
10091.83,15.12453
10097.62,15.11916
10103.4,15.12619
10109.19,15.09577
10114.97,15.1381
10120.76,15.11105
10126.54,15.15339
10132.33,15.12277
10138.12,15.11748
10143.9,15.14353
10149.69,15.16628
10155.47,15.15292
10161.26,15.15985
10167.04,15.14674
10172.83,15.16203
10178.61,15.15729
10184.4,15.16617
10190.19,15.19793
10195.97,15.18524
10201.76,15.13417
10207.54,15.16248
10213.33,15.18638
10219.11,15.15771
10224.9,15.15016
10230.68,15.15736
10236.47,15.17567
10242.25,15.15191
10248.04,15.14137
10253.83,15.13869
10259.61,15.12821
10265.4,15.14341
10271.18,15.13812
10276.97,15.14067
10282.75,15.15215
10288.54,15.11283
10294.32,15.07976
10300.11,15.11249
10305.9,15.07999
10311.68,15.06129
10317.47,15.03558
10323.25,15.07327
10329.04,15.07166
10334.82,15.06505
10340.61,15.03067
10346.39,15.03625
10352.18,15.0943
10357.96,15.08192
10363.75,15.09172
10369.54,15.06141
10375.32,15.09335
10381.11,15.07888
10386.89,15.06394
10392.68,15.03954
10398.46,15.02893
10404.25,15.06144
10410.03,15.04792
10415.82,15.02599
10421.61,15.07356
10427.39,15.03894
10433.18,15.04712
10438.96,14.98612
10444.75,15.00967
10450.53,14.94907
10456.32,14.95939
10462.1,14.97388
10467.89,14.9022
10473.67,14.89147
10479.46,14.93673
10485.25,14.92926
10491.03,14.87411
10496.82,14.81564
10502.6,14.81998
10508.39,14.76851
10514.17,14.77632
10519.96,14.74455
10525.74,14.69304
10531.53,14.66023
10537.32,14.64238
10543.1,14.62437
10548.89,14.53088
10554.67,14.50743
10560.46,14.46709
10566.24,14.4203
10572.03,14.32339
10577.81,14.27465
10583.6,14.1854
10589.38,14.16884
10595.17,14.07311
10600.96,14.02051
10606.74,13.90163
10612.53,13.83644
10618.31,13.743
10624.1,13.669
10629.88,13.63019
10635.67,13.53706
10641.45,13.40702
10647.24,13.28488
10653.03,13.1843
10658.81,13.16192
10664.6,13.00398
10670.38,12.93427
10676.17,12.80852
10681.95,12.83376
10687.74,12.70649
10693.52,12.56147
10699.31,12.6007
10705.09,12.52329
10710.88,12.50828
10716.67,12.50621
10722.45,12.52211
10728.24,12.49803
10734.02,12.46769
10739.81,12.47942
10745.59,12.52701
10751.38,12.56941
10757.16,12.608
10762.95,12.61337
10768.74,12.62079
10774.52,12.7686
10780.31,12.83465
10786.09,12.86662
10791.88,12.89274
10797.66,12.96351
10803.45,13.09848
10809.23,13.10398
10815.02,13.17753
10820.8,13.24187
10826.59,13.29594
10832.38,13.39439
10838.16,13.47092
10843.95,13.54062
10849.73,13.60174
10855.52,13.60077
10861.3,13.72178
10867.09,13.84114
10872.87,13.84144
10878.66,13.94295
10884.45,13.91536
10890.23,14.03685
10896.02,14.11723
10901.8,14.12395
10907.59,14.17856
10913.37,14.28056
10919.16,14.33833
10924.94,14.37783
10930.73,14.41233
10936.51,14.4353
10942.3,14.46247
10948.09,14.56192
10953.87,14.56203
10959.66,14.60589
10965.44,14.70378
10971.23,14.73047
10977.01,14.7516
10982.8,14.80592
10988.58,14.8576
10994.37,14.92843
11000.16,14.92913
11005.94,14.95132
11011.73,14.96878
11017.51,15.02775
11023.3,15.0565
11029.08,15.11031
11034.87,15.10804
11040.65,15.13093
11046.44,15.15144
11052.22,15.16386
11058.01,15.1086
11063.79,15.2114
11069.58,15.20767
11075.37,15.19944
11081.15,15.20231
11086.94,15.27588
11092.72,15.243
11098.51,15.27156
11104.29,15.24316
11110.08,15.2873
11115.87,15.20278
11121.65,15.31383
11127.44,15.25433
11133.22,15.37548
11139.01,15.36613
11144.79,15.32665
11150.58,15.28305
11156.36,15.34814
11162.15,15.40249
11167.93,15.41411
11173.72,15.36007
11179.5,15.42754
11185.29,15.42418
11191.08,15.46609
11196.86,15.46048
11202.65,15.48206
11208.43,15.52538
11214.22,15.52615
11220.0,15.53728
11225.79,15.57273
11231.58,15.5551
11237.36,15.55176
11243.15,15.66488
11248.93,15.60756
11254.72,15.66065
11260.5,15.67041
11266.29,15.72795
11272.07,15.70653
11277.86,15.72039
11283.64,15.76836
11289.43,15.71176
11295.21,15.74283
11301.0,15.75982
11306.79,15.68015
11312.57,15.71413
11318.36,15.71485
11324.14,15.69865
11329.93,15.78012
11335.71,15.85635
11341.5,15.82696
11347.28,15.73567
11353.07,15.82835
11358.86,15.82621
11364.64,15.90914
11370.43,15.8496
11376.21,15.83838
11382.0,15.80926
11387.78,15.85484
11393.57,15.85426
11399.35,15.8477
11405.14,15.8739
11410.92,15.84828
11416.71,15.87486
11422.5,15.865
11428.28,15.94381
11434.07,15.88893
11439.85,15.91281
11445.64,15.90842
11451.42,16.04332
11457.21,15.88174
11462.99,15.96429
11468.78,15.87332
11474.57,15.92419
11480.35,15.98872
11486.14,15.94555
11491.92,15.98441
11497.71,16.05926
11503.49,15.95195
11509.28,15.90924
11515.06,15.97777
11520.85,15.93663
11526.63,16.07853
11532.42,16.13748
11538.21,15.9916
11543.99,16.05109
11549.78,16.07173
11555.56,15.92916
11561.35,16.10112
11567.13,16.02507
11572.92,16.05299
11578.7,16.05275
11584.49,16.10636
11590.28,16.01099
11596.06,16.08084
11601.85,16.04056
11607.63,16.13237
11613.42,16.22198
11619.2,16.10828
11624.99,16.12029
11630.77,16.1689
11636.56,16.04064
11642.34,16.04048
11648.13,16.05003
11653.92,16.08657
11659.7,16.00391
11665.49,16.0308
11671.27,16.11235
11677.06,15.96056
11682.84,16.16105
11688.63,16.15311
11694.41,16.05745
11700.2,16.12023
11705.99,16.08657
11711.77,16.18833
11717.56,15.9959
11723.34,16.20571
11729.13,16.14299
11734.91,16.04573
11740.7,16.20873
11746.48,16.05587
11752.27,16.17021
11758.05,16.06072
11763.84,15.97911
11769.63,15.9141
11775.41,16.11775
11781.2,15.95756
11786.98,15.96095
11792.77,16.05897
11798.55,16.00129
11804.34,15.96932
11810.12,16.1356
11815.91,16.13356
11821.7,16.01157
11827.48,16.08191
11833.27,16.02125
11839.05,16.0624
11844.84,15.98977
11850.62,16.21754
11856.41,15.97482
11862.19,16.02354
11867.98,16.05276
11873.76,16.14093
11879.55,15.95875
11885.34,16.04417
11891.12,15.92366
11896.91,15.97615
11902.69,16.11863
11908.48,16.13669
11914.26,16.23496
11920.05,15.98858
11925.83,16.00375
11931.62,15.92385
11937.41,16.09641
11943.19,16.05043
11948.98,16.0229
11954.76,16.16677
11960.55,16.03949
11966.33,15.93352
11972.12,16.06637
11977.9,15.93967
11983.69,16.06978
11989.47,15.88007
11995.26,16.14025
11999.12,16.15602