File: Data/NIR/N1476LDPE_1.csv
Wavenumber,Intensity
3999.706,4.442991
4005.491,4.446204
4011.277,4.450453
4017.062,4.456573
4022.848,4.451776
4028.633,4.459785
4034.419,4.465658
4040.204,4.467586
4045.99,4.467486
4051.775,4.474581
4057.561,4.476863
4063.346,4.480178
4069.132,4.478484
4074.917,4.485245
4080.703,4.488682
4086.488,4.492763
4092.274,4.487007
4098.059,4.48896
4103.845,4.492563
4109.63,4.495435
4115.416,4.494668
4121.201,4.495396
4126.987,4.50094
4132.772,4.501643
4138.558,4.507763
4144.343,4.505868
4150.129,4.508833
4155.914,4.513191
4161.7,4.516904
4167.485,4.517667
4173.271,4.524422
4179.056,4.531775
4184.842,4.537957
4190.627,4.545938
4196.413,4.556329
4202.198,4.570406
4207.983,4.579836
4213.769,4.589855
4219.555,4.599661
4225.34,4.609208
4231.125,4.617818
4236.911,4.623658
4242.697,4.627297
4248.482,4.622416
4254.268,4.625546
4260.053,4.63432
4265.838,4.654012
4271.624,4.656044
4277.41,4.663707
4283.195,4.667399
4288.98,4.675003
4294.766,4.680262
4300.552,4.68018
4306.337,4.671304
4312.123,4.671515
4317.908,4.663744
4323.693,4.654127
4329.479,4.659459
4335.265,4.663827
4341.05,4.667899
4346.835,4.674671
4352.621,4.679819
4358.407,4.688679
4364.192,4.694766
4369.978,4.69679
4375.763,4.70459
4381.548,4.714345
4387.334,4.724414
4393.12,4.744556
4398.905,4.768418
4404.69,4.811026
4410.476,4.867471
4416.262,4.93998
4422.047,5.008501
4427.833,5.086012
4433.618,5.153225
4439.403,5.227978
4445.189,5.303107
4450.975,5.396193
4456.76,5.484536
4462.545,5.564519
4468.331,5.64564
4474.116,5.71886
4479.902,5.798521
4485.688,5.871408
4491.473,5.940739
4497.258,6.017324
4503.044,6.09368
4508.83,6.169723
4514.615,6.250149
4520.4,6.32467
4526.186,6.399243
4531.971,6.471561
4537.757,6.554909
4543.542,6.636011
4549.328,6.721567
4555.113,6.805079
4560.899,6.891265
4566.685,6.968623
4572.47,7.034242
4578.255,7.093455
4584.041,7.140549
4589.826,7.189888
4595.612,7.223977
4601.397,7.262421
4607.183,7.28871
4612.968,7.315083
4618.754,7.343416
4624.539,7.383352
4630.325,7.405541
4636.11,7.424275
4641.896,7.431143
4647.681,7.432429
4653.467,7.410006
4659.252,7.355351
4665.038,7.297543
4670.823,7.315948
4676.609,7.405941
4682.394,7.481663
4688.18,7.528272
4693.965,7.54613
4699.751,7.555538
4705.536,7.558449
4711.322,7.547735
4717.107,7.526299
4722.893,7.484136
4728.678,7.442412
4734.464,7.41423
4740.249,7.399591
4746.035,7.373418
4751.82,7.353328
4757.605,7.32843
4763.391,7.294585
4769.177,7.246123
4774.962,7.184786
4780.748,7.153274
4786.533,7.135787
4792.319,7.121844
4798.104,7.100826
4803.89,7.066856
4809.675,7.027995
4815.46,6.969384
4821.246,6.92206
4827.032,6.881468
4832.817,6.838477
4838.603,6.790711
4844.388,6.727935
4850.174,6.66177
4855.959,6.60137
4861.745,6.552239
4867.53,6.524392
4873.315,6.525305
4879.101,6.542705
4884.887,6.5577
4890.672,6.584258
4896.458,6.600956
4902.243,6.614841
4908.028,6.627858
4913.814,6.634584
4919.6,6.627851
4925.385,6.62643
4931.17,6.620943
4936.956,6.618301
4942.742,6.592568
4948.527,6.549093
4954.313,6.465084
4960.098,6.33992
4965.883,6.30084
4971.669,6.347503
4977.455,6.373809
4983.24,6.412713
4989.025,6.462243
4994.811,6.523415
5000.597,6.592339
5006.382,6.644796
5012.167,6.664786
5017.953,6.6707
5023.738,6.691355
5029.524,6.721453
5035.31,6.734588
5041.095,6.7409
5046.88,6.745386
5052.666,6.729451
5058.451,6.697815
5064.237,6.684048
5070.022,6.686219
5075.808,6.682123
5081.593,6.67598
5087.379,6.663404
5093.165,6.656265
5098.95,6.647341
5104.735,6.654135
5110.521,6.67354
5116.307,6.690309
5122.092,6.702266
5127.877,6.723452
5133.663,6.73177
5139.448,6.721417
5145.234,6.7013
5151.02,6.675773
5156.805,6.66005
5162.59,6.655512
5168.376,6.658065
5174.161,6.650151
5179.947,6.645919
5185.732,6.642935
5191.518,6.634948
5197.303,6.659958
5203.089,6.66302
5208.874,6.664047
5214.66,6.646544
5220.445,6.656287
5226.231,6.677206
5232.016,6.680922
5237.802,6.684756
5243.587,6.717144
5249.373,6.720833
5255.158,6.732323
5260.944,6.738037
5266.729,6.730597
5272.515,6.711053
5278.3,6.714076
5284.086,6.728713
5289.871,6.734619
5295.657,6.701876
5301.442,6.678615
5307.228,6.675173
5313.013,6.678621
5318.799,6.740697
5324.584,6.780302
5330.37,6.783927
5336.155,6.782883
5341.94,6.726131
5347.726,6.656792
5353.512,6.603164
5359.297,6.518633
5365.083,6.474651
5370.868,6.420435
5376.654,6.399578
5382.439,6.35903
5388.225,6.319486
5394.01,6.294747
5399.796,6.218803
5405.581,6.164439
5411.367,6.109765
5417.152,5.994277
5422.938,5.953866
5428.723,5.945188
5434.509,5.917614
5440.294,5.908291
5446.08,5.88097
5451.865,5.850603
5457.65,5.838904
5463.436,5.823966
5469.222,5.799373
5475.007,5.778405
5480.792,5.720909
5486.578,5.692507
5492.363,5.687149
5498.149,5.675798
5503.935,5.68704
5509.72,5.698681
5515.505,5.718937
5521.291,5.728437
5527.077,5.717611
5532.862,5.712151
5538.647,5.706033
5544.433,5.691478
5550.219,5.686464
5556.004,5.684641
5561.79,5.711602
5567.575,5.742295
5573.36,5.790859
5579.146,5.851248
5584.932,5.894376
5590.717,5.903314
5596.502,5.887395
5602.288,5.850424
5608.073,5.793556
5613.859,5.732799
5619.645,5.674569
5625.43,5.618323
5631.215,5.565731
5637.001,5.508726
5642.786,5.430019
5648.572,5.307846
5654.357,5.15758
5660.143,5.067972
5665.929,5.061822
5671.714,5.102262
5677.5,5.170929
5683.285,5.232199
5689.07,5.288113
5694.856,5.356598
5700.642,5.448647
5706.427,5.540788
5712.212,5.598797
5717.998,5.599295
5723.783,5.513996
5729.569,5.342481
5735.354,5.289434
5741.14,5.244917
5746.925,5.158158
5752.711,5.077947
5758.496,5.022033
5764.282,4.979211
5770.067,4.960999
5775.853,4.952302
5781.638,4.961406
5787.424,4.97419
5793.209,4.996282
5798.995,5.013298
5804.78,5.039784
5810.566,5.073956
5816.352,5.110088
5822.137,5.153688
5827.922,5.214251
5833.708,5.283354
5839.493,5.36799
5845.279,5.47419
5851.064,5.629546
5856.85,5.830262
5862.635,6.094786
5868.421,6.399527
5874.206,6.729791
5879.992,7.070396
5885.777,7.387163
5891.563,7.652214
5897.348,7.842397
5903.134,8.006545
5908.919,8.204244
5914.705,8.448793
5920.49,8.736206
5926.276,9.036829
5932.061,9.327171
5937.847,9.580414
5943.632,9.811423
5949.418,10.02023
5955.203,10.23449
5960.989,10.45516
5966.774,10.69888
5972.56,10.92877
5978.345,11.14924
5984.131,11.34167
5989.916,11.52591
5995.702,11.69659
6001.487,11.85438
6007.272,12.01424
6013.058,12.1593
6018.844,12.30148
6024.629,12.43815
6030.415,12.5528
6036.2,12.66798
6041.985,12.76784
6047.771,12.85628
6053.557,12.95053
6059.342,13.03386
6065.128,13.10161
6070.913,13.17811
6076.698,13.23344
6082.484,13.29697
6088.27,13.34805
6094.055,13.39886
6099.841,13.43549
6105.626,13.4814
6111.412,13.52352
6117.197,13.56199
6122.982,13.60764
6128.768,13.65781
6134.554,13.70333
6140.339,13.75596
6146.125,13.80376
6151.91,13.84482
6157.695,13.891
6163.481,13.94046
6169.267,13.98703
6175.052,14.03277
6180.837,14.07559
6186.623,14.11335
6192.408,14.13849
6198.194,14.173
6203.979,14.20241
6209.765,14.22769
6215.551,14.2534
6221.336,14.2789
6227.121,14.30221
6232.907,14.32263
6238.692,14.33845
6244.478,14.35033
6250.264,14.35615
6256.049,14.36437
6261.834,14.37549
6267.62,14.38221
6273.405,14.39538
6279.191,14.40356
6284.977,14.41497
6290.762,14.4225
6296.547,14.42365
6302.333,14.43737
6308.118,14.44162
6313.904,14.44682
6319.689,14.44309
6325.475,14.43255
6331.26,14.42018
6337.046,14.40576
6342.831,14.38614
6348.617,14.35852
6354.402,14.32686
6360.188,14.29925
6365.974,14.25257
6371.759,14.19076
6377.544,14.14392
6383.33,14.1214
6389.115,14.10783
6394.901,14.08364
6400.687,14.04169
6406.472,13.98173
6412.257,13.89475
6418.043,13.83256
6423.828,13.7987
6429.614,13.76927
6435.399,13.73293
6441.185,13.65467
6446.97,13.55833
6452.756,13.44766
6458.541,13.31632
6464.327,13.12327
6470.112,12.83723
6475.897,12.50504
6481.684,12.3054
6487.469,12.32217
6493.254,12.43114
6499.04,12.5435
6504.825,12.65166
6510.61,12.74504
6516.396,12.81171
6522.182,12.86698
6527.967,12.91616
6533.753,12.96101
6539.538,13.00054
6545.324,13.03541
6551.109,13.06534
6556.895,13.09209
6562.68,13.12123
6568.466,13.16681
6574.251,13.20989
6580.037,13.24904
6585.822,13.26423
6591.607,13.27543
6597.393,13.28413
6603.179,13.28998
6608.964,13.29156
6614.75,13.29336
6620.535,13.28227
6626.32,13.27548
6632.106,13.25144
6637.892,13.23448
6643.677,13.20632
6649.463,13.18541
6655.248,13.14459
6661.034,13.12018
6666.819,13.06868
6672.604,13.04437
6678.39,12.99719
6684.176,12.95292
6689.961,12.89796
6695.747,12.84319
6701.532,12.78788
6707.317,12.72316
6713.103,12.65046
6718.889,12.58003
6724.674,12.52324
6730.459,12.46364
6736.245,12.40308
6742.03,12.3469
6747.816,12.27679
6753.602,12.21814
6759.387,12.15301
6765.173,12.09445
6770.958,12.01583
6776.743,11.92931
6782.529,11.82156
6788.314,11.70723
6794.1,11.58428
6799.886,11.45939
6805.671,11.31958
6811.457,11.20601
6817.242,11.07767
6823.027,10.94963
6828.813,10.8062
6834.599,10.69146
6840.384,10.6114
6846.169,10.55699
6851.955,10.49915
6857.74,10.43073
6863.526,10.36413
6869.312,10.291
6875.097,10.22271
6880.882,10.12891
6886.668,10.03225
6892.453,9.932489
6898.239,9.837678
6904.024,9.772469
6909.81,9.713987
6915.596,9.647315
6921.381,9.553073
6927.166,9.44656
6932.952,9.32255
6938.737,9.181275
6944.523,9.049166
6950.309,8.96594
6956.094,8.94215
6961.879,8.942707
6967.665,8.93266
6973.45,8.948996
6979.236,8.933354
6985.021,8.909645
6990.807,8.878543
6996.592,8.836278
7002.378,8.770279
7008.163,8.699143
7013.949,8.6262
7019.734,8.557935
7025.52,8.522927
7031.305,8.516369
7037.091,8.481201
7042.876,8.424452
7048.662,8.293974
7054.447,8.127281
7060.232,7.975505
7066.019,8.002823
7071.804,8.213552
7077.589,8.477556
7083.375,8.707729
7089.16,8.848398
7094.946,8.973361
7100.731,9.080853
7106.517,9.253924
7112.302,9.398688
7118.088,9.570128
7123.873,9.661406
7129.659,9.703633
7135.444,9.668584
7141.229,9.576407
7147.015,9.401373
7152.801,9.147942
7158.586,8.723735
7164.372,8.127302
7170.157,7.678274
7175.942,7.684775
7181.729,8.053545
7187.514,8.429631
7193.299,8.823857
7199.085,9.186866
7204.87,9.568319
7210.655,9.867822
7216.441,10.16314
7222.227,10.45653
7228.012,10.78354
7233.798,11.09496
7239.583,11.34491
7245.369,11.60062
7251.154,11.87566
7256.939,12.10811
7262.725,12.37602
7268.511,12.61577
7274.296,12.85453
7280.082,13.1015
7285.867,13.3353
7291.652,13.55249
7297.438,13.76475
7303.224,13.96842
7309.009,14.20337
7314.794,14.3915
7320.58,14.57972
7326.365,14.76993
7332.151,14.86541
7337.937,14.99724
7343.722,15.09632
7349.508,15.16642
7355.293,15.2876
7361.079,15.35999
7366.864,15.46985
7372.649,15.54895
7378.435,15.65308
7384.221,15.72335
7390.006,15.78866
7395.792,15.83578
7401.577,15.87839
7407.362,15.91892
7413.148,15.95808
7418.934,15.9854
7424.719,16.01019
7430.504,16.03254
7436.29,16.04741
7442.075,16.06824
7447.861,16.08739
7453.646,16.11206
7459.432,16.12264
7465.218,16.13778
7471.003,16.14595
7476.788,16.15861
7482.574,16.15604
7488.359,16.16036
7494.145,16.1588
7499.931,16.15538
7505.716,16.16001
7511.501,16.14738
7517.287,16.14428
7523.072,16.14251
7528.858,16.13793
7534.644,16.13468
7540.429,16.1133
7546.214,16.09731
7552.0,16.09266
7557.785,16.07626
7563.571,16.06547
7569.356,16.0426
7575.142,16.03044
7580.927,16.01629
7586.713,15.99881
7592.498,15.99174
7598.284,15.95412
7604.069,15.9408
7609.854,15.92217
7615.641,15.89163
7621.426,15.86706
7627.211,15.83344
7632.997,15.80161
7638.782,15.76827
7644.568,15.73352
7650.354,15.70449
7656.139,15.6797
7661.924,15.65457
7667.71,15.63353
7673.495,15.60988
7679.281,15.59069
7685.066,15.57188
7690.852,15.55927
7696.637,15.54361
7702.423,15.51473
7708.208,15.49956
7713.994,15.47712
7719.779,15.45965
7725.564,15.44039
7731.35,15.40779
7737.136,15.39823
7742.921,15.38858
7748.707,15.3692
7754.492,15.33944
7760.277,15.30776
7766.063,15.28003
7771.849,15.2492
7777.634,15.24639
7783.42,15.22545
7789.205,15.21176
7794.991,15.19725
7800.776,15.17585
7806.562,15.14371
7812.347,15.11521
7818.133,15.09365
7823.918,15.06443
7829.704,15.0314
7835.489,15.0024
7841.274,14.97519
7847.06,14.93196
7852.846,14.89736
7858.631,14.84661
7864.417,14.79612
7870.202,14.75911
7875.987,14.70736
7881.773,14.65071
7887.559,14.60442
7893.344,14.55255
7899.13,14.48601
7904.915,14.43533
7910.7,14.3687
7916.486,14.30473
7922.271,14.24059
7928.057,14.16843
7933.843,14.09373
7939.628,14.01574
7945.414,13.93611
7951.199,13.85115
7956.984,13.77652
7962.77,13.67263
7968.556,13.59154
7974.341,13.48822
7980.126,13.39559
7985.912,13.29059
7991.697,13.18152
7997.483,13.08659
8003.269,12.96343
8009.054,12.85945
8014.839,12.73974
8020.625,12.61354
8026.41,12.49574
8032.196,12.34462
8037.981,12.21974
8043.767,12.0852
8049.553,11.92232
8055.338,11.7859
8061.124,11.6329
8066.909,11.47969
8072.694,11.31942
8078.48,11.15468
8084.266,10.98663
8090.051,10.81676
8095.836,10.64778
8101.622,10.4648
8107.407,10.2669
8113.192,10.08039
8118.979,9.875379
8124.764,9.680562
8130.55,9.457838
8136.335,9.249537
8142.12,9.042493
8147.906,8.821001
8153.691,8.606126
8159.477,8.40902
8165.263,8.175537
8171.048,7.973302
8176.833,7.754562
8182.619,7.566419
8188.404,7.40353
8194.189,7.246061
8199.976,7.130971
8205.761,7.036
8211.546,6.968733
8217.332,6.918091
8223.117,6.910759
8228.902,6.904461
8234.688,6.927001
8240.474,6.946512
8246.259,6.957458
8252.045,6.990164
8257.83,7.032812
8263.616,7.089157
8269.401,7.176373
8275.187,7.271253
8280.973,7.37958
8286.758,7.511012
8292.543,7.646028
8298.329,7.781648
8304.114,7.922709
8309.899,8.066025
8315.686,8.210095
8321.471,8.340609
8327.256,8.494422
8333.042,8.635315
8338.827,8.798237
8344.612,8.962799
8350.398,9.142794
8356.184,9.314114
8361.969,9.493483
8367.755,9.660028
8373.54,9.819398
8379.325,9.970705
8385.111,10.11701
8390.896,10.23737
8396.683,10.32249
8402.468,10.37381
8408.253,10.4138
8414.039,10.41441
8419.824,10.44732
8425.609,10.48806
8431.396,10.5736
8437.181,10.72972
8442.966,10.90653
8448.752,11.10323
8454.537,11.30098
8460.322,11.4822
8466.108,11.62807
8471.894,11.76796
8477.679,11.9298
8483.465,12.10171
8489.25,12.2656
8495.035,12.40064
8500.821,12.50904
8506.606,12.59413
8512.392,12.6591
8518.178,12.70104
8523.963,12.80716
8529.748,12.85142
8535.534,12.87456
8541.319,12.83074
8547.105,12.73796
8552.891,12.58475
8558.676,12.41758
8564.462,12.33787
8570.247,12.46493
8576.032,12.649
8581.818,12.87218
8587.604,13.10598
8593.389,13.39319
8599.175,13.65595
8604.96,13.93308
8610.745,14.20324
8616.531,14.43222
8622.316,14.66745
8628.102,14.8689
8633.888,15.04952
8639.673,15.22612
8645.458,15.38745
8651.244,15.51731
8657.029,15.64748
8662.814,15.75628
8668.601,15.85584
8674.386,15.95433
8680.172,16.06738
8685.957,16.15514
8691.742,16.25425
8697.528,16.39113
8703.313,16.49767
8709.099,16.60765
8714.885,16.74707
8720.67,16.86187
8726.455,16.98128
8732.241,17.10681
8738.026,17.21951
8743.812,17.30735
8749.598,17.42248
8755.383,17.52342
8761.168,17.60224
8766.954,17.67008
8772.739,17.75159
8778.524,17.82146
8784.311,17.88461
8790.096,17.94784
8795.881,17.97475
8801.667,18.03094
8807.452,18.07006
8813.237,18.10229
8819.023,18.13599
8824.809,18.1719
8830.595,18.19705
8836.38,18.20319
8842.165,18.23081
8847.951,18.24932
8853.736,18.261
8859.521,18.26479
8865.308,18.29753
8871.093,18.31084
8876.878,18.29957
8882.664,18.3171
8888.449,18.30886
8894.234,18.31449
8900.021,18.34279
8905.806,18.33334
8911.591,18.32338
8917.377,18.32771
8923.162,18.32656
8928.947,18.31939
8934.733,18.31616
8940.519,18.29516
8946.304,18.31982
8952.09,18.32594
8957.875,18.31171
8963.661,18.31652
8969.446,18.33657
8975.231,18.31133
8981.018,18.33986
8986.803,18.34661
8992.588,18.34884
8998.374,18.34533
9004.159,18.37013
9009.944,18.37341
9015.73,18.39684
9021.516,18.41258
9027.301,18.4208
9033.087,18.42786
9038.872,18.43586
9044.657,18.43747
9050.443,18.43461
9056.229,18.44677
9062.014,18.46446
9067.8,18.47152
9073.585,18.47097
9079.37,18.46202
9085.156,18.50507
9090.941,18.50511
9096.727,18.486
9102.513,18.49239
9108.298,18.48426
9114.084,18.49221
9119.869,18.49617
9125.654,18.49833
9131.44,18.494
9137.226,18.48244
9143.011,18.47625
9148.797,18.48968
9154.582,18.48589
9160.367,18.4811
9166.153,18.46945
9171.938,18.44996
9177.724,18.45285
9183.51,18.43011
9189.295,18.42631
9195.08,18.42573
9200.866,18.41353
9206.651,18.39428
9212.437,18.39405
9218.223,18.375
9224.008,18.3803
9229.793,18.36681
9235.579,18.35975
9241.364,18.35782
9247.15,18.3688
9252.936,18.3526
9258.721,18.32339
9264.507,18.35422
9270.292,18.33818
9276.077,18.32231
9281.863,18.31208
9287.648,18.28236
9293.434,18.31351
9299.22,18.30091
9305.005,18.31437
9310.79,18.3014
9316.576,18.31319
9322.361,18.31065
9328.146,18.31347
9333.933,18.30878
9339.718,18.30913
9345.503,18.31126
9351.289,18.30035
9357.074,18.27298
9362.859,18.26304
9368.646,18.25858
9374.431,18.23987
9380.217,18.23227
9386.002,18.21739
9391.787,18.19342
9397.573,18.18604
9403.358,18.17151
9409.144,18.15634
9414.93,18.14416
9420.715,18.11319
9426.5,18.08794
9432.286,18.05866
9438.071,18.0468
9443.856,18.0281
9449.643,17.9977
9455.428,17.97622
9461.213,17.95356
9466.999,17.93269
9472.784,17.90573
9478.569,17.87945
9484.355,17.89304
9490.141,17.87622
9495.926,17.85714
9501.712,17.84058
9507.497,17.842
9513.282,17.81057
9519.068,17.80454
9524.854,17.80902
9530.64,17.78587
9536.425,17.75944
9542.21,17.75889
9547.996,17.73453
9553.781,17.71618
9559.566,17.68298
9565.353,17.65713
9571.138,17.63951
9576.923,17.62102
9582.709,17.60608
9588.494,17.61766
9594.279,17.61075
9600.065,17.61112
9605.851,17.61765
9611.636,17.64364
9617.422,17.68439
9623.207,17.69112
9628.992,17.71963
9634.778,17.78009
9640.563,17.7733
9646.349,17.83163
9652.135,17.85954
9657.92,17.89985
9663.706,17.91362
9669.491,17.98842
9675.276,18.00152
9681.063,18.01533
9686.848,18.08971
9692.633,18.118
9698.419,18.14494
9704.204,18.16398
9709.989,18.20964
9715.775,18.27093
9721.561,18.3257
9727.346,18.3336
9733.132,18.36418
9738.917,18.42336
9744.702,18.44043
9750.488,18.47035
9756.273,18.51128
9762.059,18.49827
9767.845,18.49796
9773.63,18.49959
9779.415,18.52621
9785.201,18.53291
9790.986,18.54029
9796.771,18.56793
9802.558,18.54547
9808.343,18.55088
9814.129,18.5499
9819.914,18.56223
9825.699,18.54427
9831.485,18.59968
9837.271,18.59974
9843.056,18.64589
9848.842,18.63377
9854.627,18.69185
9860.412,18.73428
9866.198,18.80428
9871.983,18.80622
9877.769,18.88239
9883.555,18.89732
9889.34,18.94508
9895.125,18.96503
9900.911,18.95283
9906.696,19.01561
9912.481,19.03773
9918.268,19.07328
9924.053,19.08939
9929.838,19.1135
9935.624,19.14743
9941.409,19.20913
9947.195,19.22653
9952.98,19.22654
9958.766,19.27061
9964.552,19.26244
9970.337,19.32467
9976.122,19.32216
9981.908,19.33742
9987.693,19.34483
9993.479,19.35739
9999.265,19.39175
10005.05,19.39492
10010.83,19.43468
10016.62,19.44769
10022.41,19.44765
10028.19,19.45255
10033.98,19.51587
10039.76,19.51225
10045.55,19.53621
10051.33,19.53822
10057.12,19.58262
10062.9,19.57583
10068.69,19.60094
10074.48,19.64138
10080.26,19.62468
10086.05,19.6406
10091.83,19.65128
10097.62,19.65449
10103.4,19.64322
10109.19,19.66235
10114.97,19.63227
10120.76,19.66653
10126.54,19.71472
10132.33,19.67154
10138.12,19.71667
10143.9,19.71013
10149.69,19.70304
10155.47,19.71735
10161.26,19.73314
10167.04,19.72745
10172.83,19.75556
10178.61,19.68942
10184.4,19.74361
10190.19,19.72993
10195.97,19.74423
10201.76,19.76011
10207.54,19.76558
10213.33,19.73296
10219.11,19.77198
10224.9,19.77831
10230.68,19.75261
10236.47,19.76445
10242.25,19.74261
10248.04,19.74934
10253.83,19.70829
10259.61,19.74294
10265.4,19.72533
10271.18,19.73866
10276.97,19.72963
10282.75,19.70637
10288.54,19.69139
10294.32,19.70329
10300.11,19.68289
10305.9,19.65218
10311.68,19.59497
10317.47,19.5947
10323.25,19.60624
10329.04,19.56253
10334.82,19.59134
10340.61,19.6254
10346.39,19.59866
10352.18,19.62075
10357.96,19.66697
10363.75,19.64479
10369.54,19.62446
10375.32,19.63883
10381.11,19.64231
10386.89,19.64781
10392.68,19.62954
10398.46,19.61324
10404.25,19.66571
10410.03,19.60741
10415.82,19.61394
10421.61,19.6592
10427.39,19.60009
10433.18,19.55838
10438.96,19.54023
10444.75,19.57699
10450.53,19.52733
10456.32,19.55533
10462.1,19.53937
10467.89,19.47811
10473.67,19.49689
10479.46,19.44001
10485.25,19.44928
10491.03,19.42791
10496.82,19.34985
10502.6,19.29537
10508.39,19.30677
10514.17,19.24415
10519.96,19.20531
10525.74,19.15253
10531.53,19.15875
10537.32,19.10099
10543.1,19.0591
10548.89,19.0176
10554.67,18.94407
10560.46,18.86353
10566.24,18.81747
10572.03,18.74159
10577.81,18.63808
10583.6,18.57329
10589.38,18.52127
10595.17,18.41957
10600.96,18.29897
10606.74,18.20031
10612.53,18.06529
10618.31,18.02413
10624.1,17.82964
10629.88,17.74637
10635.67,17.56733
10641.45,17.51155
10647.24,17.34659
10653.03,17.23834
10658.81,17.05445
10664.6,17.00989
10670.38,16.8781
10676.17,16.74942
10681.95,16.70036
10687.74,16.54814
10693.52,16.49592
10699.31,16.43662
10705.09,16.40391
10710.88,16.35228
10716.67,16.33719
10722.45,16.31837
10728.24,16.3167
10734.02,16.36044
10739.81,16.35542
10745.59,16.36636
10751.38,16.41924
10757.16,16.52034
10762.95,16.55271
10768.74,16.5854
10774.52,16.6752
10780.31,16.71797
10786.09,16.799
10791.88,16.88579
10797.66,16.93421
10803.45,17.0519
10809.23,17.10378
10815.02,17.23402
10820.8,17.31175
10826.59,17.35392
10832.38,17.53807
10838.16,17.65888
10843.95,17.70772
10849.73,17.77501
10855.52,17.83507
10861.3,17.93443
10867.09,18.0782
10872.87,18.16239
10878.66,18.23986
10884.45,18.36125
10890.23,18.35911
10896.02,18.43783
10901.8,18.6191
10907.59,18.63384
10913.37,18.73275
10919.16,18.77562
10924.94,18.83584
10930.73,18.83934
10936.51,19.01952
10942.3,18.97554
10948.09,19.05273
10953.87,19.18093
10959.66,19.29081
10965.44,19.33178
10971.23,19.36576
10977.01,19.34985
10982.8,19.45889
10988.58,19.49984
10994.37,19.53786
11000.16,19.56476
11005.94,19.56927
11011.73,19.68555
11017.51,19.72375
11023.3,19.77582
11029.08,19.79236
11034.87,19.80725
11040.65,19.90085
11046.44,19.78996
11052.22,19.91757
11058.01,19.89646
11063.79,19.99966
11069.58,19.97087
11075.37,20.03337
11081.15,20.03471
11086.94,20.00406
11092.72,20.0265
11098.51,20.02697
11104.29,20.03434
11110.08,20.07412
11115.87,20.08006
11121.65,20.03516
11127.44,20.10399
11133.22,20.06086
11139.01,20.11772
11144.79,20.17554
11150.58,20.14577
11156.36,20.25371
11162.15,20.23468
11167.93,20.21225
11173.72,20.25494
11179.5,20.33708
11185.29,20.28257
11191.08,20.32248
11196.86,20.35907
11202.65,20.37757
11208.43,20.46721
11214.22,20.44713
11220.0,20.50548
11225.79,20.54197
11231.58,20.56457
11237.36,20.63108
11243.15,20.55492
11248.93,20.60359
11254.72,20.60574
11260.5,20.71624
11266.29,20.67656
11272.07,20.71326
11277.86,20.67049
11283.64,20.76333
11289.43,20.78374
11295.21,20.68291
11301.0,20.76457
11306.79,20.87543
11312.57,20.84288
11318.36,20.70372
11324.14,20.76225
11329.93,20.83011
11335.71,20.81463
11341.5,20.83686
11347.28,20.96342
11353.07,20.93651
11358.86,20.84408
11364.64,20.79024
11370.43,20.84885
11376.21,20.86898
11382.0,20.96359
11387.78,20.95623
11393.57,20.94528
11399.35,20.86954
11405.14,20.99566
11410.92,21.01273
11416.71,20.98656
11422.5,20.99283
11428.28,20.96987
11434.07,21.0173
11439.85,21.01051
11445.64,20.95609
11451.42,21.09998
11457.21,21.03922
11462.99,21.10718
11468.78,21.03247
11474.57,21.06945
11480.35,21.22292
11486.14,21.01224
11491.92,21.22138
11497.71,21.12636
11503.49,21.15996
11509.28,21.24688
11515.06,21.12782
11520.85,21.12522
11526.63,21.24653
11532.42,21.2084
11538.21,21.18861
11543.99,21.21492
11549.78,21.33486
11555.56,21.18678
11561.35,21.16912
11567.13,21.16069
11572.92,21.24397
11578.7,21.34354
11584.49,21.17921
11590.28,21.22786
11596.06,21.32694
11601.85,21.28452
11607.63,21.20068
11613.42,21.33585
11619.2,21.3142
11624.99,21.4152
11630.77,21.30496
11636.56,21.26535
11642.34,21.33182
11648.13,21.24903
11653.92,21.28462
11659.7,21.41832
11665.49,21.21743
11671.27,21.41378
11677.06,21.34593
11682.84,21.2851
11688.63,21.3536
11694.41,21.4546
11700.2,21.31129
11705.99,21.24657
11711.77,21.29503
11717.56,21.36064
11723.34,21.29512
11729.13,21.24536
11734.91,21.25527
11740.7,21.36078
11746.48,21.33941
11752.27,21.3715
11758.05,21.19437
11763.84,21.42159
11769.63,21.25796
11775.41,21.26877
11781.2,21.25361
11786.98,21.20209
11792.77,21.28537
11798.55,21.17659
11804.34,21.20141
11810.12,21.31142
11815.91,21.17483
11821.7,21.24112
11827.48,21.21262
11833.27,21.30211
11839.05,21.27776
11844.84,21.25435
11850.62,21.1491
11856.41,21.13512
11862.19,21.27105
11867.98,21.32306
11873.76,21.26039
11879.55,21.28038
11885.34,21.13041
11891.12,21.1312
11896.91,21.1501
11902.69,21.06512
11908.48,21.32365
11914.26,21.16472
11920.05,21.32043
11925.83,21.37251
11931.62,21.35159
11937.41,21.22873
11943.19,21.29591
11948.98,21.3435
11954.76,21.19845
11960.55,21.39416
11966.33,21.24726
11972.12,21.08345
11977.9,21.12786
11983.69,21.25195
11989.47,21.36123
11995.26,21.11305
11999.12,21.35377