File: Data/NIR/N1473LDPE_2.csv
Wavenumber,Intensity
3999.706,2.932982
4005.491,2.939961
4011.277,2.940454
4017.062,2.947343
4022.848,2.943363
4028.633,2.953762
4034.419,2.952075
4040.204,2.952606
4045.99,2.955544
4051.775,2.956292
4057.561,2.960011
4063.346,2.962768
4069.132,2.965226
4074.917,2.970053
4080.703,2.969763
4086.488,2.970876
4092.274,2.971296
4098.059,2.973243
4103.845,2.975695
4109.63,2.974707
4115.416,2.97736
4121.201,2.977873
4126.987,2.980251
4132.772,2.981097
4138.558,2.985071
4144.343,2.986316
4150.129,2.985363
4155.914,2.989724
4161.7,2.989865
4167.485,2.993617
4173.271,2.996959
4179.056,3.001615
4184.842,3.00427
4190.627,3.008442
4196.413,3.016775
4202.198,3.030173
4207.983,3.032715
4213.769,3.041651
4219.555,3.044343
4225.34,3.053207
4231.125,3.056931
4236.911,3.063657
4242.697,3.062896
4248.482,3.05666
4254.268,3.060132
4260.053,3.068584
4265.838,3.083024
4271.624,3.083396
4277.41,3.088035
4283.195,3.093355
4288.98,3.097544
4294.766,3.097883
4300.552,3.102748
4306.337,3.095398
4312.123,3.099286
4317.908,3.082592
4323.693,3.075866
4329.479,3.087637
4335.265,3.093439
4341.05,3.093987
4346.835,3.101966
4352.621,3.104113
4358.407,3.109099
4364.192,3.112142
4369.978,3.111681
4375.763,3.115047
4381.548,3.118153
4387.334,3.122095
4393.12,3.126756
4398.905,3.129122
4404.69,3.139824
4410.476,3.149881
4416.262,3.170048
4422.047,3.186651
4427.833,3.20758
4433.618,3.229703
4439.403,3.254142
4445.189,3.282726
4450.975,3.313822
4456.76,3.346184
4462.545,3.374706
4468.331,3.408859
4474.116,3.438474
4479.902,3.467967
4485.688,3.496876
4491.473,3.527624
4497.258,3.564266
4503.044,3.596354
4508.83,3.632708
4514.615,3.672385
4520.4,3.707809
4526.186,3.742914
4531.971,3.782356
4537.757,3.825356
4543.542,3.870581
4549.328,3.910822
4555.113,3.95473
4560.899,4.000137
4566.685,4.039179
4572.47,4.075831
4578.255,4.109531
4584.041,4.142057
4589.826,4.166148
4595.612,4.189276
4601.397,4.213233
4607.183,4.227694
4612.968,4.24809
4618.754,4.264397
4624.539,4.288514
4630.325,4.303285
4636.11,4.31016
4641.896,4.320761
4647.681,4.322649
4653.467,4.315333
4659.252,4.286955
4665.038,4.258091
4670.823,4.269285
4676.609,4.31934
4682.394,4.361172
4688.18,4.382398
4693.965,4.393977
4699.751,4.399905
4705.536,4.402638
4711.322,4.397657
4717.107,4.387322
4722.893,4.366
4728.678,4.34552
4734.464,4.331351
4740.249,4.324968
4746.035,4.314378
4751.82,4.304325
4757.605,4.289899
4763.391,4.272815
4769.177,4.249767
4774.962,4.218804
4780.748,4.200665
4786.533,4.193096
4792.319,4.183493
4798.104,4.174005
4803.89,4.154448
4809.675,4.13576
4815.46,4.104062
4821.246,4.078349
4827.032,4.059453
4832.817,4.038826
4838.603,4.014064
4844.388,3.980207
4850.174,3.948193
4855.959,3.921353
4861.745,3.896562
4867.53,3.881033
4873.315,3.882317
4879.101,3.889186
4884.887,3.898982
4890.672,3.913265
4896.458,3.919638
4902.243,3.927638
4908.028,3.931945
4913.814,3.936421
4919.6,3.936309
4925.385,3.935005
4931.17,3.931842
4936.956,3.931253
4942.742,3.918047
4948.527,3.896908
4954.313,3.857341
4960.098,3.803133
4965.883,3.779576
4971.669,3.796743
4977.455,3.810798
4983.24,3.828252
4989.025,3.850221
4994.811,3.874774
5000.597,3.909298
5006.382,3.931353
5012.167,3.939613
5017.953,3.946802
5023.738,3.95083
5029.524,3.966853
5035.31,3.975128
5041.095,3.976673
5046.88,3.978411
5052.666,3.972046
5058.451,3.960588
5064.237,3.951279
5070.022,3.954776
5075.808,3.95472
5081.593,3.953651
5087.379,3.945452
5093.165,3.941314
5098.95,3.935967
5104.735,3.939731
5110.521,3.949587
5116.307,3.955925
5122.092,3.962806
5127.877,3.971688
5133.663,3.9749
5139.448,3.971199
5145.234,3.964847
5151.02,3.951674
5156.805,3.945731
5162.59,3.942131
5168.376,3.947766
5174.161,3.938095
5179.947,3.936021
5185.732,3.935859
5191.518,3.930247
5197.303,3.940792
5203.089,3.945998
5208.874,3.940675
5214.66,3.937958
5220.445,3.939168
5226.231,3.948874
5232.016,3.95399
5237.802,3.954045
5243.587,3.968695
5249.373,3.965022
5255.158,3.972414
5260.944,3.975787
5266.729,3.972414
5272.515,3.965559
5278.3,3.96722
5284.086,3.973324
5289.871,3.97448
5295.657,3.963971
5301.442,3.952729
5307.228,3.952955
5313.013,3.952517
5318.799,3.977413
5324.584,3.998936
5330.37,4.001046
5336.155,3.997252
5341.94,3.97227
5347.726,3.941933
5353.512,3.917411
5359.297,3.882957
5365.083,3.860475
5370.868,3.837616
5376.654,3.822932
5382.439,3.811118
5388.225,3.788642
5394.01,3.76998
5399.796,3.742364
5405.581,3.720491
5411.367,3.696805
5417.152,3.651798
5422.938,3.634136
5428.723,3.627428
5434.509,3.619181
5440.294,3.612482
5446.08,3.599161
5451.865,3.591563
5457.65,3.585268
5463.436,3.58059
5469.222,3.57194
5475.007,3.56281
5480.792,3.544655
5486.578,3.533267
5492.363,3.532921
5498.149,3.529454
5503.935,3.53213
5509.72,3.533472
5515.505,3.541111
5521.291,3.542738
5527.077,3.540108
5532.862,3.541729
5538.647,3.537178
5544.433,3.530756
5550.219,3.530573
5556.004,3.530944
5561.79,3.542799
5567.575,3.55098
5573.36,3.56567
5579.146,3.590919
5584.932,3.598856
5590.717,3.610289
5596.502,3.603001
5602.288,3.589546
5608.073,3.566556
5613.859,3.547485
5619.645,3.521676
5625.43,3.504144
5631.215,3.486472
5637.001,3.472863
5642.786,3.44389
5648.572,3.40527
5654.357,3.369107
5660.143,3.346453
5665.929,3.343518
5671.714,3.356236
5677.5,3.374314
5683.285,3.388017
5689.07,3.404918
5694.856,3.424197
5700.642,3.452568
5706.427,3.477916
5712.212,3.4966
5717.998,3.500587
5723.783,3.475627
5729.569,3.43251
5735.354,3.415312
5741.14,3.400546
5746.925,3.37388
5752.711,3.353743
5758.496,3.334361
5764.282,3.322232
5770.067,3.315057
5775.853,3.31313
5781.638,3.317191
5787.424,3.321336
5793.209,3.33131
5798.995,3.335553
5804.78,3.338938
5810.566,3.349052
5816.352,3.360753
5822.137,3.374984
5827.922,3.38523
5833.708,3.4099
5839.493,3.425305
5845.279,3.458081
5851.064,3.503779
5856.85,3.555462
5862.635,3.64146
5868.421,3.742843
5874.206,3.866616
5879.992,4.016851
5885.777,4.169501
5891.563,4.304413
5897.348,4.398893
5903.134,4.482805
5908.919,4.593785
5914.705,4.750489
5920.49,4.954115
5926.276,5.17853
5932.061,5.409539
5937.847,5.608998
5943.632,5.792348
5949.418,5.957799
5955.203,6.113826
5960.989,6.27474
5966.774,6.447509
5972.56,6.607641
5978.345,6.760001
5984.131,6.904007
5989.916,7.037157
5995.702,7.162184
6001.487,7.277845
6007.272,7.392133
6013.058,7.505487
6018.844,7.608019
6024.629,7.713806
6030.415,7.801135
6036.2,7.888341
6041.985,7.962403
6047.771,8.031949
6053.557,8.105773
6059.342,8.163553
6065.128,8.223726
6070.913,8.277301
6076.698,8.321311
6082.484,8.364096
6088.27,8.407757
6094.055,8.440085
6099.841,8.468131
6105.626,8.500529
6111.412,8.53255
6117.197,8.559322
6122.982,8.59447
6128.768,8.645554
6134.554,8.684957
6140.339,8.737178
6146.125,8.778925
6151.91,8.828468
6157.695,8.87469
6163.481,8.916398
6169.267,8.960946
6175.052,9.011535
6180.837,9.046871
6186.623,9.084718
6192.408,9.110442
6198.194,9.14371
6203.979,9.168668
6209.765,9.188899
6215.551,9.215728
6221.336,9.23038
6227.121,9.250391
6232.907,9.273011
6238.692,9.285588
6244.478,9.298125
6250.264,9.30576
6256.049,9.309392
6261.834,9.321026
6267.62,9.326252
6273.405,9.339478
6279.191,9.348059
6284.977,9.352386
6290.762,9.359053
6296.547,9.361865
6302.333,9.3728
6308.118,9.37521
6313.904,9.372548
6319.689,9.373403
6325.475,9.366791
6331.26,9.355162
6337.046,9.33998
6342.831,9.327132
6348.617,9.307243
6354.402,9.275813
6360.188,9.259631
6365.974,9.218224
6371.759,9.176396
6377.544,9.136133
6383.33,9.118473
6389.115,9.104327
6394.901,9.093203
6400.687,9.058946
6406.472,9.010511
6412.257,8.9459
6418.043,8.900573
6423.828,8.871436
6429.614,8.844312
6435.399,8.81914
6441.185,8.765194
6446.97,8.693571
6452.756,8.610379
6458.541,8.511099
6464.327,8.363676
6470.112,8.148144
6475.897,7.909758
6481.684,7.765403
6487.469,7.768782
6493.254,7.835743
6499.04,7.909585
6504.825,7.981305
6510.61,8.044064
6516.396,8.084345
6522.182,8.122808
6527.967,8.155152
6533.753,8.178035
6539.538,8.201118
6545.324,8.222974
6551.109,8.240839
6556.895,8.256141
6562.68,8.269341
6568.466,8.302758
6574.251,8.331558
6580.037,8.356385
6585.822,8.362744
6591.607,8.3653
6597.393,8.373122
6603.179,8.370954
6608.964,8.37291
6614.75,8.366195
6620.535,8.357381
6626.32,8.34332
6632.106,8.326712
6637.892,8.308542
6643.677,8.288469
6649.463,8.271265
6655.248,8.242517
6661.034,8.218737
6666.819,8.175695
6672.604,8.159219
6678.39,8.113304
6684.176,8.085394
6689.961,8.039071
6695.747,7.999399
6701.532,7.954926
6707.317,7.906032
6713.103,7.848851
6718.889,7.798338
6724.674,7.754477
6730.459,7.704034
6736.245,7.664659
6742.03,7.613481
6747.816,7.565705
6753.602,7.519958
6759.387,7.471436
6765.173,7.424254
6770.958,7.365423
6776.743,7.300724
6782.529,7.219545
6788.314,7.141405
6794.1,7.053945
6799.886,6.96504
6805.671,6.870084
6811.457,6.793448
6817.242,6.699648
6823.027,6.614197
6828.813,6.520792
6834.599,6.436924
6840.384,6.388568
6846.169,6.342046
6851.955,6.303205
6857.74,6.249499
6863.526,6.207424
6869.312,6.150374
6875.097,6.101165
6880.882,6.046623
6886.668,5.971794
6892.453,5.906909
6898.239,5.844226
6904.024,5.797248
6909.81,5.75625
6915.596,5.70372
6921.381,5.650983
6927.166,5.581647
6932.952,5.502511
6938.737,5.413441
6944.523,5.331799
6950.309,5.281874
6956.094,5.265962
6961.879,5.255231
6967.665,5.251672
6973.45,5.25459
6979.236,5.242696
6985.021,5.229418
6990.807,5.208486
6996.592,5.189163
7002.378,5.161978
7008.163,5.11608
7013.949,5.07419
7019.734,5.04603
7025.52,5.016519
7031.305,5.03876
7037.091,5.034189
7042.876,5.033061
7048.662,4.980632
7054.447,4.891436
7060.232,4.802541
7066.019,4.803919
7071.804,4.889281
7077.589,5.004519
7083.375,5.115649
7089.16,5.1849
7094.946,5.257284
7100.731,5.321938
7106.517,5.4212
7112.302,5.508987
7118.088,5.598751
7123.873,5.666437
7129.659,5.692338
7135.444,5.670321
7141.229,5.604517
7147.015,5.503741
7152.801,5.345396
7158.586,5.096884
7164.372,4.765041
7170.157,4.524879
7175.942,4.522831
7181.729,4.693197
7187.514,4.892186
7193.299,5.101314
7199.085,5.314496
7204.87,5.532128
7210.655,5.736475
7216.441,5.923517
7222.227,6.117135
7228.012,6.327572
7233.798,6.521379
7239.583,6.697883
7245.369,6.864899
7251.154,7.044998
7256.939,7.215122
7262.725,7.390283
7268.511,7.56906
7274.296,7.748458
7280.082,7.921412
7285.867,8.09189
7291.652,8.263273
7297.438,8.42567
7303.224,8.574657
7309.009,8.755483
7314.794,8.911101
7320.58,9.052398
7326.365,9.181262
7332.151,9.263181
7337.937,9.359988
7343.722,9.420993
7349.508,9.484724
7355.293,9.57371
7361.079,9.666523
7366.864,9.756056
7372.649,9.849948
7378.435,9.94018
7384.221,10.02373
7390.006,10.09159
7395.792,10.14112
7401.577,10.18958
7407.362,10.22113
7413.148,10.2561
7418.934,10.27864
7424.719,10.3056
7430.504,10.32145
7436.29,10.3389
7442.075,10.35759
7447.861,10.37459
7453.646,10.38157
7459.432,10.4006
7465.218,10.40156
7471.003,10.41185
7476.788,10.41174
7482.574,10.42101
7488.359,10.41828
7494.145,10.41986
7499.931,10.41837
7505.716,10.41501
7511.501,10.41141
7517.287,10.40499
7523.072,10.40198
7528.858,10.39691
7534.644,10.3886
7540.429,10.37541
7546.214,10.36401
7552.0,10.35371
7557.785,10.34777
7563.571,10.332
7569.356,10.31525
7575.142,10.30159
7580.927,10.2836
7586.713,10.27188
7592.498,10.26023
7598.284,10.22912
7604.069,10.22646
7609.854,10.20323
7615.641,10.17716
7621.426,10.15306
7627.211,10.12551
7632.997,10.09588
7638.782,10.06809
7644.568,10.04705
7650.354,10.02173
7656.139,10.00035
7661.924,9.980286
7667.71,9.950685
7673.495,9.929423
7679.281,9.910452
7685.066,9.895349
7690.852,9.879507
7696.637,9.876589
7702.423,9.852595
7708.208,9.832026
7713.994,9.812377
7719.779,9.79405
7725.564,9.784579
7731.35,9.748696
7737.136,9.740478
7742.921,9.727498
7748.707,9.703274
7754.492,9.689165
7760.277,9.660795
7766.063,9.638586
7771.849,9.615074
7777.634,9.601571
7783.42,9.588826
7789.205,9.566572
7794.991,9.551751
7800.776,9.530191
7806.562,9.504657
7812.347,9.486195
7818.133,9.470051
7823.918,9.447573
7829.704,9.417676
7835.489,9.389225
7841.274,9.364668
7847.06,9.339139
7852.846,9.300176
7858.631,9.258085
7864.417,9.221081
7870.202,9.183254
7875.987,9.141736
7881.773,9.107708
7887.559,9.06786
7893.344,9.0228
7899.13,8.987179
7904.915,8.92241
7910.7,8.891182
7916.486,8.827374
7922.271,8.776271
7928.057,8.717861
7933.843,8.659461
7939.628,8.598736
7945.414,8.536636
7951.199,8.48772
7956.984,8.413869
7962.77,8.339661
7968.556,8.278736
7974.341,8.211379
7980.126,8.132961
7985.912,8.060951
7991.697,7.974148
7997.483,7.912901
8003.269,7.823313
8009.054,7.743785
8014.839,7.656764
8020.625,7.563349
8026.41,7.474898
8032.196,7.376294
8037.981,7.284101
8043.767,7.192486
8049.553,7.078048
8055.338,6.978255
8061.124,6.880601
8066.909,6.775154
8072.694,6.670419
8078.48,6.55555
8084.266,6.447536
8090.051,6.319937
8095.836,6.216996
8101.622,6.091298
8107.407,5.975179
8113.192,5.859323
8118.979,5.722843
8124.764,5.608905
8130.55,5.4706
8136.335,5.344548
8142.12,5.206924
8147.906,5.076486
8153.691,4.961057
8159.477,4.843755
8165.263,4.725983
8171.048,4.610023
8176.833,4.492728
8182.619,4.407444
8188.404,4.315492
8194.189,4.244007
8199.976,4.185586
8205.761,4.149578
8211.546,4.106019
8217.332,4.087095
8223.117,4.073555
8228.902,4.068925
8234.688,4.078139
8240.474,4.086616
8246.259,4.091027
8252.045,4.107022
8257.83,4.122237
8263.616,4.143348
8269.401,4.180317
8275.187,4.230735
8280.973,4.269979
8286.758,4.335022
8292.543,4.401014
8298.329,4.476834
8304.114,4.540837
8309.899,4.614616
8315.686,4.69071
8321.471,4.747437
8327.256,4.847429
8333.042,4.913495
8338.827,4.990518
8344.612,5.088973
8350.398,5.179549
8356.184,5.274305
8361.969,5.359174
8367.755,5.450041
8373.54,5.54181
8379.325,5.619412
8385.111,5.709987
8390.896,5.775198
8396.683,5.822597
8402.468,5.85112
8408.253,5.89588
8414.039,5.898952
8419.824,5.933118
8425.609,5.962845
8431.396,6.043005
8437.181,6.128649
8442.966,6.241655
8448.752,6.370901
8454.537,6.512003
8460.322,6.619806
8466.108,6.717941
8471.894,6.817484
8477.679,6.922747
8483.465,7.032498
8489.25,7.127066
8495.035,7.223897
8500.821,7.291832
8506.606,7.356304
8512.392,7.395348
8518.178,7.456765
8523.963,7.516436
8529.748,7.550719
8535.534,7.570395
8541.319,7.544856
8547.105,7.497087
8552.891,7.408866
8558.676,7.309283
8564.462,7.262778
8570.247,7.347213
8576.032,7.473797
8581.818,7.620709
8587.604,7.765766
8593.389,7.946094
8599.175,8.115249
8604.96,8.298643
8610.745,8.48096
8616.531,8.626873
8622.316,8.814435
8628.102,8.937536
8633.888,9.089766
8639.673,9.201385
8645.458,9.321046
8651.244,9.417566
8657.029,9.50712
8662.814,9.603057
8668.601,9.655304
8674.386,9.728524
8680.172,9.811606
8685.957,9.86518
8691.742,9.947261
8697.528,10.04653
8703.313,10.13346
8709.099,10.22513
8714.885,10.34679
8720.67,10.43018
8726.455,10.51699
8732.241,10.63108
8738.026,10.7203
8743.812,10.80066
8749.598,10.89433
8755.383,10.98409
8761.168,11.02732
8766.954,11.09521
8772.739,11.16484
8778.524,11.2036
8784.311,11.27233
8790.096,11.33316
8795.881,11.36108
8801.667,11.39498
8807.452,11.44829
8813.237,11.46871
8819.023,11.50311
8824.809,11.52035
8830.595,11.54221
8836.38,11.55855
8842.165,11.56927
8847.951,11.59451
8853.736,11.6036
8859.521,11.61427
8865.308,11.62391
8871.093,11.64573
8876.878,11.62412
8882.664,11.64293
8888.449,11.64346
8894.234,11.65682
8900.021,11.66454
8905.806,11.65533
8911.591,11.64647
8917.377,11.63093
8923.162,11.65123
8928.947,11.64927
8934.733,11.63153
8940.519,11.63576
8946.304,11.62292
8952.09,11.64483
8957.875,11.63084
8963.661,11.64632
8969.446,11.64263
8975.231,11.63775
8981.018,11.65541
8986.803,11.65067
8992.588,11.66529
8998.374,11.65562
9004.159,11.67197
9009.944,11.66657
9015.73,11.68419
9021.516,11.69175
9027.301,11.69579
9033.087,11.7079
9038.872,11.7049
9044.657,11.69829
9050.443,11.71927
9056.229,11.70956
9062.014,11.73034
9067.8,11.73099
9073.585,11.7167
9079.37,11.72948
9085.156,11.73606
9090.941,11.73566
9096.727,11.73957
9102.513,11.75098
9108.298,11.73505
9114.084,11.72077
9119.869,11.71651
9125.654,11.73042
9131.44,11.72306
9137.226,11.72265
9143.011,11.7029
9148.797,11.71677
9154.582,11.69675
9160.367,11.70118
9166.153,11.69388
9171.938,11.6722
9177.724,11.68765
9183.51,11.66824
9189.295,11.66014
9195.08,11.63726
9200.866,11.6446
9206.651,11.62108
9212.437,11.62758
9218.223,11.61205
9224.008,11.61302
9229.793,11.60175
9235.579,11.58464
9241.364,11.57914
9247.15,11.59934
9252.936,11.56559
9258.721,11.55817
9264.507,11.56907
9270.292,11.54675
9276.077,11.54286
9281.863,11.54788
9287.648,11.51019
9293.434,11.51944
9299.22,11.5212
9305.005,11.54381
9310.79,11.50442
9316.576,11.51826
9322.361,11.5185
9328.146,11.50823
9333.933,11.52261
9339.718,11.51633
9345.503,11.50673
9351.289,11.50465
9357.074,11.46873
9362.859,11.46709
9368.646,11.46919
9374.431,11.44447
9380.217,11.4351
9386.002,11.42214
9391.787,11.40037
9397.573,11.38453
9403.358,11.38486
9409.144,11.3628
9414.93,11.35426
9420.715,11.33328
9426.5,11.31786
9432.286,11.28561
9438.071,11.29128
9443.856,11.26096
9449.643,11.24375
9455.428,11.21836
9461.213,11.20009
9466.999,11.17303
9472.784,11.14405
9478.569,11.14294
9484.355,11.15377
9490.141,11.12692
9495.926,11.11413
9501.712,11.11725
9507.497,11.11314
9513.282,11.08058
9519.068,11.06478
9524.854,11.06679
9530.64,11.05628
9536.425,11.05073
9542.21,11.02233
9547.996,11.00306
9553.781,11.00207
9559.566,10.97432
9565.353,10.94998
9571.138,10.93944
9576.923,10.94005
9582.709,10.9078
9588.494,10.91165
9594.279,10.91734
9600.065,10.91777
9605.851,10.90229
9611.636,10.92807
9617.422,10.95443
9623.207,10.95417
9628.992,10.98964
9634.778,11.01355
9640.563,11.03842
9646.349,11.07315
9652.135,11.07392
9657.92,11.09332
9663.706,11.12411
9669.491,11.16185
9675.276,11.19729
9681.063,11.18504
9686.848,11.22722
9692.633,11.27085
9698.419,11.28054
9704.204,11.27729
9709.989,11.33985
9715.775,11.37377
9721.561,11.40496
9727.346,11.40473
9733.132,11.43746
9738.917,11.47197
9744.702,11.492
9750.488,11.51753
9756.273,11.52205
9762.059,11.55457
9767.845,11.52006
9773.63,11.53311
9779.415,11.55273
9785.201,11.54675
9790.986,11.58263
9796.771,11.59476
9802.558,11.56486
9808.343,11.5731
9814.129,11.56327
9819.914,11.56486
9825.699,11.56232
9831.485,11.58707
9837.271,11.61311
9843.056,11.63751
9848.842,11.63586
9854.627,11.67355
9860.412,11.71706
9866.198,11.74396
9871.983,11.74057
9877.769,11.80366
9883.555,11.83538
9889.34,11.84727
9895.125,11.88047
9900.911,11.87346
9906.696,11.91406
9912.481,11.91701
9918.268,11.96892
9924.053,11.9755
9929.838,12.01462
9935.624,11.99653
9941.409,12.07889
9947.195,12.08685
9952.98,12.05662
9958.766,12.13434
9964.552,12.14172
9970.337,12.18669
9976.122,12.18793
9981.908,12.17084
9987.693,12.1902
9993.479,12.19649
9999.265,12.22226
10005.05,12.20189
10010.83,12.26472
10016.62,12.2619
10022.41,12.24616
10028.19,12.25571
10033.98,12.27846
10039.76,12.2921
10045.55,12.31426
10051.33,12.34831
10057.12,12.35414
10062.9,12.34863
10068.69,12.33552
10074.48,12.38672
10080.26,12.39023
10086.05,12.39046
10091.83,12.40565
10097.62,12.38471
10103.4,12.41479
10109.19,12.41915
10114.97,12.40796
10120.76,12.43577
10126.54,12.43561
10132.33,12.41605
10138.12,12.43437
10143.9,12.43085
10149.69,12.43185
10155.47,12.45781
10161.26,12.45532
10167.04,12.4669
10172.83,12.46064
10178.61,12.4221
10184.4,12.45272
10190.19,12.46658
10195.97,12.45906
10201.76,12.43831
10207.54,12.45672
10213.33,12.46617
10219.11,12.4814
10224.9,12.47403
10230.68,12.45687
10236.47,12.46545
10242.25,12.4478
10248.04,12.42772
10253.83,12.449
10259.61,12.44937
10265.4,12.46644
10271.18,12.41732
10276.97,12.45708
10282.75,12.4021
10288.54,12.40252
10294.32,12.44112
10300.11,12.44394
10305.9,12.439
10311.68,12.39885
10317.47,12.37463
10323.25,12.41623
10329.04,12.39449
10334.82,12.43248
10340.61,12.37334
10346.39,12.40795
10352.18,12.39497
10357.96,12.41804
10363.75,12.36838
10369.54,12.35242
10375.32,12.33306
10381.11,12.35774
10386.89,12.35408
10392.68,12.34888
10398.46,12.33499
10404.25,12.37365
10410.03,12.32884
10415.82,12.28356
10421.61,12.34941
10427.39,12.30554
10433.18,12.28353
10438.96,12.24344
10444.75,12.2998
10450.53,12.22218
10456.32,12.23621
10462.1,12.19089
10467.89,12.17928
10473.67,12.20541
10479.46,12.1622
10485.25,12.17846
10491.03,12.16142
10496.82,12.13523
10502.6,12.07077
10508.39,12.09534
10514.17,12.02785
10519.96,11.99937
10525.74,11.98475
10531.53,11.93412
10537.32,11.92877
10543.1,11.89381
10548.89,11.81027
10554.67,11.79544
10560.46,11.7413
10566.24,11.68274
10572.03,11.63993
10577.81,11.48792
10583.6,11.48824
10589.38,11.43573
10595.17,11.39151
10600.96,11.29333
10606.74,11.26265
10612.53,11.11496
10618.31,11.0785
10624.1,10.97018
10629.88,10.89388
10635.67,10.75757
10641.45,10.7352
10647.24,10.59349
10653.03,10.52775
10658.81,10.4315
10664.6,10.34261
10670.38,10.24553
10676.17,10.18178
10681.95,10.07106
10687.74,10.00651
10693.52,9.999715
10699.31,9.92386
10705.09,9.922019
10710.88,9.905606
10716.67,9.8441
10722.45,9.879502
10728.24,9.811471
10734.02,9.895611
10739.81,9.865014
10745.59,9.887241
10751.38,9.886659
10757.16,10.00329
10762.95,9.966287
10768.74,9.99092
10774.52,10.07038
10780.31,10.14613
10786.09,10.17827
10791.88,10.18337
10797.66,10.24503
10803.45,10.33587
10809.23,10.351
10815.02,10.47287
10820.8,10.52423
10826.59,10.5786
10832.38,10.66869
10838.16,10.74188
10843.95,10.76581
10849.73,10.82402
10855.52,10.89034
10861.3,11.01983
10867.09,11.01334
10872.87,11.10652
10878.66,11.21122
10884.45,11.23534
10890.23,11.273
10896.02,11.2561
10901.8,11.39172
10907.59,11.46737
10913.37,11.49244
10919.16,11.52246
10924.94,11.58067
10930.73,11.57116
10936.51,11.68475
10942.3,11.6517
10948.09,11.71315
10953.87,11.77681
10959.66,11.88878
10965.44,11.93855
10971.23,11.95713
10977.01,11.97997
10982.8,12.01332
10988.58,12.02392
10994.37,12.06882
11000.16,12.0857
11005.94,12.16048
11011.73,12.2007
11017.51,12.19864
11023.3,12.27387
11029.08,12.31213
11034.87,12.27428
11040.65,12.40145
11046.44,12.35154
11052.22,12.41884
11058.01,12.41483
11063.79,12.42582
11069.58,12.44466
11075.37,12.47311
11081.15,12.41788
11086.94,12.46464
11092.72,12.49147
11098.51,12.52204
11104.29,12.49742
11110.08,12.55137
11115.87,12.53509
11121.65,12.511
11127.44,12.45552
11133.22,12.47828
11139.01,12.524
11144.79,12.56123
11150.58,12.55893
11156.36,12.70796
11162.15,12.68757
11167.93,12.59297
11173.72,12.58465
11179.5,12.65284
11185.29,12.73483
11191.08,12.67792
11196.86,12.71264
11202.65,12.77192
11208.43,12.81337
11214.22,12.88182
11220.0,12.83611
11225.79,12.84034
11231.58,12.81192
11237.36,12.89335
11243.15,12.82344
11248.93,12.9503
11254.72,12.97528
11260.5,13.02911
11266.29,12.96802
11272.07,12.96323
11277.86,13.08151
11283.64,13.03705
11289.43,13.03711
11295.21,12.92942
11301.0,13.0311
11306.79,13.067
11312.57,13.05556
11318.36,13.00835
11324.14,13.09025
11329.93,13.11913
11335.71,13.13061
11341.5,13.06316
11347.28,13.15783
11353.07,13.13664
11358.86,13.08865
11364.64,13.1256
11370.43,13.1216
11376.21,13.09765
11382.0,13.24127
11387.78,13.19019
11393.57,13.21788
11399.35,13.16039
11405.14,13.22258
11410.92,13.1989
11416.71,13.24345
11422.5,13.23744
11428.28,13.26497
11434.07,13.15885
11439.85,13.27188
11445.64,13.15086
11451.42,13.30222
11457.21,13.2549
11462.99,13.28753
11468.78,13.22828
11474.57,13.26916
11480.35,13.36435
11486.14,13.24121
11491.92,13.36585
11497.71,13.34304
11503.49,13.38249
11509.28,13.32349
11515.06,13.37429
11520.85,13.37489
11526.63,13.38743
11532.42,13.34967
11538.21,13.28947
11543.99,13.37991
11549.78,13.42667
11555.56,13.29207
11561.35,13.30204
11567.13,13.37166
11572.92,13.41741
11578.7,13.43521
11584.49,13.4244
11590.28,13.48428
11596.06,13.52031
11601.85,13.39021
11607.63,13.35804
11613.42,13.46604
11619.2,13.37781
11624.99,13.55243
11630.77,13.42388
11636.56,13.41727
11642.34,13.55727
11648.13,13.46245
11653.92,13.39784
11659.7,13.58173
11665.49,13.34521
11671.27,13.46329
11677.06,13.44644
11682.84,13.39963
11688.63,13.4965
11694.41,13.54055
11700.2,13.44248
11705.99,13.49364
11711.77,13.42409
11717.56,13.5406
11723.34,13.48596
11729.13,13.41858
11734.91,13.40535
11740.7,13.5408
11746.48,13.62306
11752.27,13.56642
11758.05,13.5482
11763.84,13.53287
11769.63,13.47632
11775.41,13.50671
11781.2,13.49941
11786.98,13.61025
11792.77,13.57977
11798.55,13.41093
11804.34,13.36957
11810.12,13.58916
11815.91,13.59423
11821.7,13.42986
11827.48,13.42432
11833.27,13.57987
11839.05,13.42819
11844.84,13.37148
11850.62,13.40019
11856.41,13.52406
11862.19,13.46833
11867.98,13.65549
11873.76,13.47151
11879.55,13.53485
11885.34,13.29107
11891.12,13.49058
11896.91,13.41068
11902.69,13.54786
11908.48,13.56312
11914.26,13.43839
11920.05,13.68584
11925.83,13.48694
11931.62,13.60829
11937.41,13.4874
11943.19,13.54848
11948.98,13.47765
11954.76,13.46776
11960.55,13.50468
11966.33,13.60719
11972.12,13.31764
11977.9,13.44353
11983.69,13.28663
11989.47,13.59329
11995.26,13.48024
11999.12,13.43496