File: Data/NIR/N1476LDPE_2.csv
Wavenumber,Intensity
3999.706,2.902091
4005.491,2.901241
4011.277,2.903173
4017.062,2.904605
4022.848,2.903477
4028.633,2.906394
4034.419,2.909379
4040.204,2.91108
4045.99,2.912051
4051.775,2.917425
4057.561,2.913655
4063.346,2.919712
4069.132,2.914267
4074.917,2.923995
4080.703,2.920362
4086.488,2.925477
4092.274,2.920236
4098.059,2.92498
4103.845,2.919646
4109.63,2.92278
4115.416,2.924203
4121.201,2.925724
4126.987,2.923318
4132.772,2.929088
4138.558,2.927459
4144.343,2.928841
4150.129,2.931175
4155.914,2.936098
4161.7,2.935637
4167.485,2.934557
4173.271,2.938645
4179.056,2.942756
4184.842,2.949919
4190.627,2.954068
4196.413,2.956636
4202.198,2.966983
4207.983,2.975331
4213.769,2.983108
4219.555,2.985315
4225.34,2.992356
4231.125,2.998035
4236.911,2.996024
4242.697,3.000408
4248.482,2.996467
4254.268,2.995489
4260.053,3.003957
4265.838,3.015589
4271.624,3.021474
4277.41,3.027986
4283.195,3.029587
4288.98,3.032878
4294.766,3.037067
4300.552,3.034441
4306.337,3.033002
4312.123,3.028953
4317.908,3.018023
4323.693,3.011802
4329.479,3.013538
4335.265,3.019613
4341.05,3.024408
4346.835,3.035002
4352.621,3.037071
4358.407,3.044113
4364.192,3.048895
4369.978,3.050695
4375.763,3.056756
4381.548,3.064185
4387.334,3.073003
4393.12,3.084683
4398.905,3.100454
4404.69,3.127917
4410.476,3.162139
4416.262,3.203389
4422.047,3.246663
4427.833,3.294702
4433.618,3.335225
4439.403,3.383292
4445.189,3.43334
4450.975,3.497336
4456.76,3.56101
4462.545,3.623046
4468.331,3.682525
4474.116,3.738091
4479.902,3.797553
4485.688,3.850887
4491.473,3.909124
4497.258,3.972201
4503.044,4.033017
4508.83,4.093438
4514.615,4.158665
4520.4,4.218547
4526.186,4.282877
4531.971,4.343976
4537.757,4.410764
4543.542,4.477786
4549.328,4.547934
4555.113,4.617055
4560.899,4.692963
4566.685,4.760663
4572.47,4.813223
4578.255,4.862875
4584.041,4.903581
4589.826,4.942626
4595.612,4.974901
4601.397,5.006612
4607.183,5.035999
4612.968,5.056466
4618.754,5.079483
4624.539,5.114091
4630.325,5.135331
4636.11,5.150074
4641.896,5.158655
4647.681,5.155593
4653.467,5.136477
4659.252,5.085622
4665.038,5.026422
4670.823,5.045875
4676.609,5.121423
4682.394,5.191295
4688.18,5.228627
4693.965,5.244529
4699.751,5.249604
4705.536,5.248857
4711.322,5.235759
4717.107,5.213542
4722.893,5.172647
4728.678,5.135808
4734.464,5.108814
4740.249,5.08934
4746.035,5.063934
4751.82,5.045171
4757.605,5.024035
4763.391,4.989859
4769.177,4.948292
4774.962,4.893506
4780.748,4.863889
4786.533,4.846315
4792.319,4.830481
4798.104,4.814427
4803.89,4.783412
4809.675,4.743094
4815.46,4.697586
4821.246,4.654551
4827.032,4.618607
4832.817,4.5807
4838.603,4.54284
4844.388,4.488551
4850.174,4.429816
4855.959,4.383081
4861.745,4.34
4867.53,4.319345
4873.315,4.316482
4879.101,4.330266
4884.887,4.343
4890.672,4.369388
4896.458,4.379837
4902.243,4.391004
4908.028,4.400488
4913.814,4.40441
4919.6,4.402535
4925.385,4.401324
4931.17,4.397689
4936.956,4.395937
4942.742,4.373062
4948.527,4.33852
4954.313,4.272043
4960.098,4.170862
4965.883,4.139538
4971.669,4.173891
4977.455,4.198574
4983.24,4.229543
4989.025,4.27022
4994.811,4.314352
5000.597,4.372612
5006.382,4.418431
5012.167,4.430989
5017.953,4.436746
5023.738,4.456736
5029.524,4.482432
5035.31,4.492243
5041.095,4.491312
5046.88,4.498418
5052.666,4.483901
5058.451,4.453852
5064.237,4.440539
5070.022,4.442882
5075.808,4.442094
5081.593,4.435658
5087.379,4.426785
5093.165,4.413781
5098.95,4.4113
5104.735,4.412914
5110.521,4.433972
5116.307,4.443863
5122.092,4.455736
5127.877,4.469549
5133.663,4.478413
5139.448,4.469612
5145.234,4.450169
5151.02,4.431942
5156.805,4.416103
5162.59,4.412367
5168.376,4.419138
5174.161,4.408928
5179.947,4.403652
5185.732,4.394717
5191.518,4.396591
5197.303,4.407011
5203.089,4.420843
5208.874,4.403649
5214.66,4.405186
5220.445,4.410245
5226.231,4.414333
5232.016,4.426691
5237.802,4.434973
5243.587,4.462266
5249.373,4.449776
5255.158,4.461424
5260.944,4.480287
5266.729,4.467417
5272.515,4.459547
5278.3,4.464256
5284.086,4.469331
5289.871,4.471051
5295.657,4.451146
5301.442,4.430642
5307.228,4.423189
5313.013,4.431554
5318.799,4.475444
5324.584,4.521781
5330.37,4.521807
5336.155,4.522556
5341.94,4.475751
5347.726,4.408422
5353.512,4.359816
5359.297,4.305427
5365.083,4.260848
5370.868,4.22749
5376.654,4.19705
5382.439,4.179157
5388.225,4.143593
5394.01,4.114881
5399.796,4.069829
5405.581,4.025733
5411.367,3.977303
5417.152,3.899199
5422.938,3.87277
5428.723,3.855615
5434.509,3.841706
5440.294,3.841283
5446.08,3.812614
5451.865,3.794467
5457.65,3.792559
5463.436,3.774773
5469.222,3.75616
5475.007,3.742279
5480.792,3.708009
5486.578,3.691071
5492.363,3.680399
5498.149,3.67825
5503.935,3.686432
5509.72,3.689979
5515.505,3.705369
5521.291,3.71159
5527.077,3.706631
5532.862,3.706612
5538.647,3.696369
5544.433,3.68904
5550.219,3.683523
5556.004,3.684118
5561.79,3.698667
5567.575,3.722231
5573.36,3.758298
5579.146,3.799819
5584.932,3.830206
5590.717,3.83816
5596.502,3.824792
5602.288,3.799261
5608.073,3.758852
5613.859,3.717744
5619.645,3.678054
5625.43,3.637031
5631.215,3.602787
5637.001,3.567057
5642.786,3.51828
5648.572,3.438535
5654.357,3.347174
5660.143,3.289924
5665.929,3.287375
5671.714,3.3129
5677.5,3.354062
5683.285,3.39577
5689.07,3.429051
5694.856,3.468757
5700.642,3.528634
5706.427,3.593748
5712.212,3.628379
5717.998,3.631565
5723.783,3.572781
5729.569,3.46351
5735.354,3.432644
5741.14,3.404548
5746.925,3.350319
5752.711,3.300685
5758.496,3.263325
5764.282,3.235694
5770.067,3.216838
5775.853,3.211394
5781.638,3.218991
5787.424,3.230769
5793.209,3.246543
5798.995,3.257554
5804.78,3.276508
5810.566,3.296142
5816.352,3.324471
5822.137,3.348181
5827.922,3.382703
5833.708,3.428988
5839.493,3.47677
5845.279,3.549875
5851.064,3.656412
5856.85,3.791665
5862.635,3.979357
5868.421,4.21242
5874.206,4.473383
5879.992,4.751913
5885.777,5.017344
5891.563,5.24713
5897.348,5.416
5903.134,5.564157
5908.919,5.739513
5914.705,5.966249
5920.49,6.237404
5926.276,6.514554
5932.061,6.788097
5937.847,7.027371
5943.632,7.252316
5949.418,7.457818
5955.203,7.660271
5960.989,7.877704
5966.774,8.119117
5972.56,8.345734
5978.345,8.556583
5984.131,8.753401
5989.916,8.935669
5995.702,9.104941
6001.487,9.264307
6007.272,9.422434
6013.058,9.572475
6018.844,9.714523
6024.629,9.84864
6030.415,9.963422
6036.2,10.07556
6041.985,10.18168
6047.771,10.27066
6053.557,10.36762
6059.342,10.4466
6065.128,10.5143
6070.913,10.59067
6076.698,10.65135
6082.484,10.71001
6088.27,10.76456
6094.055,10.80907
6099.841,10.84721
6105.626,10.89612
6111.412,10.9362
6117.197,10.97364
6122.982,11.02119
6128.768,11.07418
6134.554,11.11505
6140.339,11.16784
6146.125,11.21265
6151.91,11.26046
6157.695,11.30332
6163.481,11.35205
6169.267,11.39892
6175.052,11.44832
6180.837,11.48406
6186.623,11.52339
6192.408,11.54869
6198.194,11.58025
6203.979,11.61126
6209.765,11.63504
6215.551,11.66305
6221.336,11.68683
6227.121,11.70302
6232.907,11.72923
6238.692,11.73997
6244.478,11.75091
6250.264,11.75832
6256.049,11.76715
6261.834,11.77789
6267.62,11.7852
6273.405,11.79692
6279.191,11.80375
6284.977,11.81232
6290.762,11.8203
6296.547,11.82044
6302.333,11.82971
6308.118,11.83958
6313.904,11.84011
6319.689,11.83356
6325.475,11.82108
6331.26,11.80826
6337.046,11.79031
6342.831,11.77035
6348.617,11.74263
6354.402,11.70899
6360.188,11.67789
6365.974,11.63238
6371.759,11.56869
6377.544,11.52256
6383.33,11.49653
6389.115,11.47678
6394.901,11.45724
6400.687,11.41316
6406.472,11.34835
6412.257,11.26741
6418.043,11.2028
6423.828,11.16383
6429.614,11.13627
6435.399,11.09255
6441.185,11.01429
6446.97,10.91618
6452.756,10.80808
6458.541,10.6748
6464.327,10.48071
6470.112,10.195
6475.897,9.862448
6481.684,9.659163
6487.469,9.672507
6493.254,9.784604
6499.04,9.898165
6504.825,10.00104
6510.61,10.09565
6516.396,10.16009
6522.182,10.21225
6527.967,10.26506
6533.753,10.30836
6539.538,10.34196
6545.324,10.37773
6551.109,10.40547
6556.895,10.43952
6562.68,10.4628
6568.466,10.50754
6574.251,10.54667
6580.037,10.58615
6585.822,10.59886
6591.607,10.61326
6597.393,10.61975
6603.179,10.62833
6608.964,10.62211
6614.75,10.622
6620.535,10.61364
6626.32,10.60528
6632.106,10.58259
6637.892,10.56303
6643.677,10.53519
6649.463,10.51496
6655.248,10.47748
6661.034,10.44328
6666.819,10.39812
6672.604,10.37043
6678.39,10.32183
6684.176,10.27793
6689.961,10.22381
6695.747,10.16804
6701.532,10.10991
6707.317,10.04474
6713.103,9.982904
6718.889,9.907005
6724.674,9.849958
6730.459,9.781723
6736.245,9.72268
6742.03,9.666111
6747.816,9.600786
6753.602,9.542422
6759.387,9.477962
6765.173,9.41715
6770.958,9.336361
6776.743,9.251314
6782.529,9.1466
6788.314,9.034403
6794.1,8.913123
6799.886,8.786591
6805.671,8.656981
6811.457,8.549109
6817.242,8.418984
6823.027,8.292771
6828.813,8.151611
6834.599,8.042396
6840.384,7.969237
6846.169,7.912575
6851.955,7.858983
6857.74,7.79491
6863.526,7.733971
6869.312,7.658563
6875.097,7.593261
6880.882,7.511283
6886.668,7.41578
6892.453,7.316347
6898.239,7.233888
6904.024,7.16586
6909.81,7.11326
6915.596,7.043406
6921.381,6.96129
6927.166,6.869164
6932.952,6.749734
6938.737,6.61517
6944.523,6.502018
6950.309,6.424087
6956.094,6.402173
6961.879,6.397115
6967.665,6.397985
6973.45,6.404518
6979.236,6.400488
6985.021,6.377557
6990.807,6.344745
6996.592,6.299774
7002.378,6.250735
7008.163,6.185397
7013.949,6.120291
7019.734,6.067221
7025.52,6.029365
7031.305,6.029156
7037.091,5.99849
7042.876,5.940681
7048.662,5.82425
7054.447,5.675595
7060.232,5.548979
7066.019,5.574219
7071.804,5.757798
7077.589,5.996983
7083.375,6.199946
7089.16,6.326123
7094.946,6.439079
7100.731,6.546387
7106.517,6.689227
7112.302,6.838126
7118.088,6.972461
7123.873,7.080071
7129.659,7.120746
7135.444,7.079275
7141.229,6.987317
7147.015,6.836854
7152.801,6.60024
7158.586,6.229068
7164.372,5.691553
7170.157,5.292291
7175.942,5.310721
7181.729,5.610056
7187.514,5.949895
7193.299,6.302796
7199.085,6.636292
7204.87,6.959045
7210.655,7.264504
7216.441,7.533897
7222.227,7.79933
7228.012,8.106827
7233.798,8.382589
7239.583,8.658747
7245.369,8.879581
7251.154,9.150611
7256.939,9.378633
7262.725,9.629189
7268.511,9.859247
7274.296,10.10566
7280.082,10.33108
7285.867,10.56232
7291.652,10.77948
7297.438,10.98867
7303.224,11.18981
7309.009,11.41666
7314.794,11.6046
7320.58,11.78522
7326.365,11.97342
7332.151,12.0614
7337.937,12.20486
7343.722,12.28222
7349.508,12.34374
7355.293,12.46311
7361.079,12.54554
7366.864,12.65932
7372.649,12.73491
7378.435,12.83248
7384.221,12.89819
7390.006,12.96532
7395.792,13.0102
7401.577,13.05815
7407.362,13.09657
7413.148,13.1286
7418.934,13.15284
7424.719,13.18506
7430.504,13.202
7436.29,13.21738
7442.075,13.2336
7447.861,13.25562
7453.646,13.26929
7459.432,13.28043
7465.218,13.30213
7471.003,13.30724
7476.788,13.31406
7482.574,13.31482
7488.359,13.32433
7494.145,13.30938
7499.931,13.30654
7505.716,13.31423
7511.501,13.308
7517.287,13.29421
7523.072,13.29139
7528.858,13.2862
7534.644,13.27541
7540.429,13.26028
7546.214,13.24839
7552.0,13.2303
7557.785,13.22336
7563.571,13.20794
7569.356,13.19133
7575.142,13.18028
7580.927,13.15853
7586.713,13.14065
7592.498,13.11927
7598.284,13.09479
7604.069,13.08044
7609.854,13.05326
7615.641,13.02838
7621.426,12.99726
7627.211,12.95996
7632.997,12.93417
7638.782,12.89522
7644.568,12.86236
7650.354,12.8355
7656.139,12.80821
7661.924,12.78207
7667.71,12.75879
7673.495,12.73136
7679.281,12.70653
7685.066,12.68953
7690.852,12.6789
7696.637,12.65622
7702.423,12.63553
7708.208,12.61508
7713.994,12.59458
7719.779,12.57464
7725.564,12.55288
7731.35,12.51628
7737.136,12.50944
7742.921,12.50509
7748.707,12.47579
7754.492,12.44894
7760.277,12.42172
7766.063,12.38919
7771.849,12.3626
7777.634,12.34308
7783.42,12.33247
7789.205,12.31219
7794.991,12.30205
7800.776,12.27604
7806.562,12.24531
7812.347,12.22121
7818.133,12.1967
7823.918,12.16156
7829.704,12.12998
7835.489,12.10464
7841.274,12.07106
7847.06,12.03552
7852.846,11.99559
7858.631,11.94444
7864.417,11.89775
7870.202,11.85753
7875.987,11.80431
7881.773,11.75606
7887.559,11.70503
7893.344,11.64692
7899.13,11.58789
7904.915,11.52669
7910.7,11.47405
7916.486,11.40393
7922.271,11.34882
7928.057,11.26969
7933.843,11.1975
7939.628,11.12722
7945.414,11.04819
7951.199,10.96551
7956.984,10.87679
7962.77,10.79067
7968.556,10.69712
7974.341,10.6101
7980.126,10.5074
7985.912,10.41831
7991.697,10.30621
7997.483,10.21627
8003.269,10.09195
8009.054,9.997145
8014.839,9.880934
8020.625,9.759669
8026.41,9.637908
8032.196,9.503516
8037.981,9.388762
8043.767,9.252715
8049.553,9.10625
8055.338,8.966208
8061.124,8.81713
8066.909,8.666825
8072.694,8.541865
8078.48,8.373235
8084.266,8.219278
8090.051,8.051529
8095.836,7.890411
8101.622,7.731108
8107.407,7.549769
8113.192,7.379871
8118.979,7.189882
8124.764,7.032235
8130.55,6.818146
8136.335,6.640587
8142.12,6.452027
8147.906,6.256621
8153.691,6.063654
8159.477,5.891285
8165.263,5.704537
8171.048,5.526729
8176.833,5.34367
8182.619,5.201275
8188.404,5.070462
8194.189,4.946909
8199.976,4.84177
8205.761,4.770629
8211.546,4.716105
8217.332,4.678982
8223.117,4.66983
8228.902,4.669518
8234.688,4.69153
8240.474,4.695767
8246.259,4.713544
8252.045,4.731711
8257.83,4.775274
8263.616,4.814384
8269.401,4.887795
8275.187,4.961296
8280.973,5.047446
8286.758,5.142868
8292.543,5.252771
8298.329,5.374056
8304.114,5.477017
8309.899,5.610635
8315.686,5.736375
8321.471,5.836411
8327.256,5.958651
8333.042,6.089707
8338.827,6.22751
8344.612,6.367363
8350.398,6.530849
8356.184,6.669864
8361.969,6.827028
8367.755,6.991161
8373.54,7.131654
8379.325,7.258775
8385.111,7.390461
8390.896,7.496847
8396.683,7.570533
8402.468,7.621739
8408.253,7.656206
8414.039,7.65833
8419.824,7.689904
8425.609,7.711637
8431.396,7.807987
8437.181,7.927486
8442.966,8.107871
8448.752,8.288838
8454.537,8.471278
8460.322,8.622757
8466.108,8.769412
8471.894,8.89126
8477.679,9.047563
8483.465,9.203347
8489.25,9.3575
8495.035,9.483931
8500.821,9.579691
8506.606,9.671945
8512.392,9.716096
8518.178,9.777222
8523.963,9.855545
8529.748,9.91471
8535.534,9.921079
8541.319,9.880128
8547.105,9.797269
8552.891,9.656269
8558.676,9.501619
8564.462,9.417419
8570.247,9.513018
8576.032,9.703173
8581.818,9.899786
8587.604,10.13796
8593.389,10.4044
8599.175,10.65134
8604.96,10.89709
8610.745,11.16331
8616.531,11.39278
8622.316,11.61196
8628.102,11.79563
8633.888,11.98527
8639.673,12.15419
8645.458,12.2892
8651.244,12.42936
8657.029,12.54019
8662.814,12.64842
8668.601,12.7401
8674.386,12.84243
8680.172,12.92808
8685.957,13.02137
8691.742,13.12608
8697.528,13.24643
8703.313,13.35431
8709.099,13.45997
8714.885,13.58515
8720.67,13.70165
8726.455,13.80844
8732.241,13.93042
8738.026,14.02853
8743.812,14.12453
8749.598,14.23477
8755.383,14.33208
8761.168,14.39842
8766.954,14.46252
8772.739,14.54735
8778.524,14.61102
8784.311,14.66944
8790.096,14.7209
8795.881,14.7463
8801.667,14.80455
8807.452,14.84778
8813.237,14.88494
8819.023,14.89024
8824.809,14.92255
8830.595,14.95139
8836.38,14.9605
8842.165,14.97877
8847.951,15.00041
8853.736,15.01677
8859.521,15.01758
8865.308,15.02987
8871.093,15.04601
8876.878,15.02925
8882.664,15.04571
8888.449,15.05
8894.234,15.05014
8900.021,15.08911
8905.806,15.05771
8911.591,15.06827
8917.377,15.05301
8923.162,15.05263
8928.947,15.04706
8934.733,15.03633
8940.519,15.03821
8946.304,15.03266
8952.09,15.04849
8957.875,15.03936
8963.661,15.0512
8969.446,15.04671
8975.231,15.04041
8981.018,15.06069
8986.803,15.05119
8992.588,15.06368
8998.374,15.05314
9004.159,15.08844
9009.944,15.0937
9015.73,15.10278
9021.516,15.11451
9027.301,15.11139
9033.087,15.12835
9038.872,15.11677
9044.657,15.14199
9050.443,15.14152
9056.229,15.14539
9062.014,15.16257
9067.8,15.14945
9073.585,15.16453
9079.37,15.1811
9085.156,15.17342
9090.941,15.17834
9096.727,15.18351
9102.513,15.1903
9108.298,15.16744
9114.084,15.17013
9119.869,15.17177
9125.654,15.16222
9131.44,15.15554
9137.226,15.15077
9143.011,15.13621
9148.797,15.14416
9154.582,15.15371
9160.367,15.14149
9166.153,15.12833
9171.938,15.12037
9177.724,15.1191
9183.51,15.10126
9189.295,15.06951
9195.08,15.08053
9200.866,15.06534
9206.651,15.05792
9212.437,15.06232
9218.223,15.03598
9224.008,15.02415
9229.793,15.03889
9235.579,15.00879
9241.364,14.99244
9247.15,15.01905
9252.936,14.99704
9258.721,14.98906
9264.507,14.99316
9270.292,14.99001
9276.077,14.96145
9281.863,14.94647
9287.648,14.93192
9293.434,14.9445
9299.22,14.93608
9305.005,14.9411
9310.79,14.93724
9316.576,14.93676
9322.361,14.9312
9328.146,14.94348
9333.933,14.94513
9339.718,14.93937
9345.503,14.93538
9351.289,14.91121
9357.074,14.89748
9362.859,14.89017
9368.646,14.88625
9374.431,14.86825
9380.217,14.85951
9386.002,14.84735
9391.787,14.81509
9397.573,14.8144
9403.358,14.77652
9409.144,14.76954
9414.93,14.76117
9420.715,14.72096
9426.5,14.71208
9432.286,14.69092
9438.071,14.66981
9443.856,14.62815
9449.643,14.59284
9455.428,14.57858
9461.213,14.562
9466.999,14.55031
9472.784,14.50574
9478.569,14.49524
9484.355,14.51786
9490.141,14.47432
9495.926,14.44803
9501.712,14.46537
9507.497,14.45354
9513.282,14.42655
9519.068,14.42627
9524.854,14.41087
9530.64,14.37783
9536.425,14.37142
9542.21,14.35784
9547.996,14.31313
9553.781,14.30865
9559.566,14.2664
9565.353,14.26345
9571.138,14.24205
9576.923,14.25184
9582.709,14.20159
9588.494,14.2182
9594.279,14.20949
9600.065,14.20565
9605.851,14.216
9611.636,14.23316
9617.422,14.26111
9623.207,14.26898
9628.992,14.29423
9634.778,14.34737
9640.563,14.36773
9646.349,14.42092
9652.135,14.42847
9657.92,14.47513
9663.706,14.50138
9669.491,14.54539
9675.276,14.57327
9681.063,14.60879
9686.848,14.62991
9692.633,14.64747
9698.419,14.68552
9704.204,14.7082
9709.989,14.74424
9715.775,14.82183
9721.561,14.82849
9727.346,14.85524
9733.132,14.88074
9738.917,14.93925
9744.702,14.93523
9750.488,15.00195
9756.273,15.00642
9762.059,15.01872
9767.845,15.01093
9773.63,15.01807
9779.415,15.04486
9785.201,15.03555
9790.986,15.06345
9796.771,15.05129
9802.558,15.05697
9808.343,15.0432
9814.129,15.04032
9819.914,15.04626
9825.699,15.04238
9831.485,15.04761
9837.271,15.10299
9843.056,15.09537
9848.842,15.11868
9854.627,15.15135
9860.412,15.20695
9866.198,15.23507
9871.983,15.26263
9877.769,15.32528
9883.555,15.36165
9889.34,15.36998
9895.125,15.4159
9900.911,15.42199
9906.696,15.43573
9912.481,15.47569
9918.268,15.50491
9924.053,15.50677
9929.838,15.52995
9935.624,15.5334
9941.409,15.61175
9947.195,15.60402
9952.98,15.63763
9958.766,15.68726
9964.552,15.67107
9970.337,15.72845
9976.122,15.71596
9981.908,15.7307
9987.693,15.76765
9993.479,15.78698
9999.265,15.77542
10005.05,15.78475
10010.83,15.79679
10016.62,15.81996
10022.41,15.81203
10028.19,15.83346
10033.98,15.84835
10039.76,15.86634
10045.55,15.9001
10051.33,15.91115
10057.12,15.93878
10062.9,15.92651
10068.69,15.92151
10074.48,15.98263
10080.26,15.96387
10086.05,15.99421
10091.83,15.98829
10097.62,15.98724
10103.4,16.00245
10109.19,16.0326
10114.97,15.97109
10120.76,16.00059
10126.54,16.03065
10132.33,16.03369
10138.12,16.04062
10143.9,16.02931
10149.69,16.03591
10155.47,16.03215
10161.26,16.03291
10167.04,16.04284
10172.83,16.05713
10178.61,16.0179
10184.4,16.05996
10190.19,16.0546
10195.97,16.08764
10201.76,16.0516
10207.54,16.07146
10213.33,16.05353
10219.11,16.05149
10224.9,16.05013
10230.68,16.02984
10236.47,16.05802
10242.25,16.02158
10248.04,16.02057
10253.83,16.02491
10259.61,16.02807
10265.4,16.06586
10271.18,16.02715
10276.97,16.01578
10282.75,15.97147
10288.54,15.99149
10294.32,15.97567
10300.11,15.97899
10305.9,15.92104
10311.68,15.91857
10317.47,15.89862
10323.25,15.92518
10329.04,15.87148
10334.82,15.92156
10340.61,15.91383
10346.39,15.90777
10352.18,15.88807
10357.96,15.94578
10363.75,15.94484
10369.54,15.87603
10375.32,15.92834
10381.11,15.93765
10386.89,15.91533
10392.68,15.87696
10398.46,15.87498
10404.25,15.93011
10410.03,15.94866
10415.82,15.88196
10421.61,15.94455
10427.39,15.87953
10433.18,15.82427
10438.96,15.83243
10444.75,15.8469
10450.53,15.78224
10456.32,15.8114
10462.1,15.77519
10467.89,15.74482
10473.67,15.71239
10479.46,15.71575
10485.25,15.71401
10491.03,15.68711
10496.82,15.59013
10502.6,15.57753
10508.39,15.55955
10514.17,15.49273
10519.96,15.48352
10525.74,15.47754
10531.53,15.4287
10537.32,15.39047
10543.1,15.34981
10548.89,15.26611
10554.67,15.21375
10560.46,15.12856
10566.24,15.06437
10572.03,15.04435
10577.81,14.87631
10583.6,14.84719
10589.38,14.78722
10595.17,14.73776
10600.96,14.59658
10606.74,14.51227
10612.53,14.36686
10618.31,14.31281
10624.1,14.19452
10629.88,14.10002
10635.67,13.94822
10641.45,13.8487
10647.24,13.72294
10653.03,13.59983
10658.81,13.44799
10664.6,13.33276
10670.38,13.30028
10676.17,13.14262
10681.95,13.10384
10687.74,12.9555
10693.52,12.88818
10699.31,12.835
10705.09,12.83993
10710.88,12.76992
10716.67,12.78439
10722.45,12.7393
10728.24,12.71727
10734.02,12.75733
10739.81,12.77059
10745.59,12.78792
10751.38,12.83941
10757.16,12.85258
10762.95,12.94142
10768.74,12.9668
10774.52,13.04673
10780.31,13.08821
10786.09,13.14719
10791.88,13.22379
10797.66,13.32544
10803.45,13.39958
10809.23,13.53454
10815.02,13.59106
10820.8,13.63867
10826.59,13.68257
10832.38,13.82205
10838.16,13.9394
10843.95,13.98029
10849.73,14.0385
10855.52,14.12437
10861.3,14.25464
10867.09,14.37048
10872.87,14.39884
10878.66,14.54592
10884.45,14.48776
10890.23,14.63063
10896.02,14.70657
10901.8,14.76283
10907.59,14.85155
10913.37,14.93746
10919.16,14.97263
10924.94,15.03703
10930.73,15.06987
10936.51,15.2107
10942.3,15.16347
10948.09,15.19987
10953.87,15.31287
10959.66,15.45039
10965.44,15.44816
10971.23,15.49214
10977.01,15.54587
10982.8,15.63591
10988.58,15.6328
10994.37,15.6533
11000.16,15.65174
11005.94,15.75167
11011.73,15.82017
11017.51,15.78311
11023.3,15.91507
11029.08,15.87836
11034.87,15.8386
11040.65,16.00716
11046.44,15.91771
11052.22,15.9829
11058.01,16.02739
11063.79,16.11624
11069.58,16.08848
11075.37,16.10208
11081.15,16.10195
11086.94,16.07896
11092.72,16.0762
11098.51,16.1747
11104.29,16.15366
11110.08,16.10537
11115.87,16.13283
11121.65,16.16129
11127.44,16.15537
11133.22,16.09975
11139.01,16.13178
11144.79,16.18734
11150.58,16.2231
11156.36,16.23862
11162.15,16.24455
11167.93,16.25537
11173.72,16.24828
11179.5,16.34533
11185.29,16.30238
11191.08,16.41177
11196.86,16.42692
11202.65,16.40652
11208.43,16.45814
11214.22,16.54832
11220.0,16.52956
11225.79,16.5153
11231.58,16.53266
11237.36,16.57707
11243.15,16.57645
11248.93,16.64996
11254.72,16.58983
11260.5,16.66987
11266.29,16.62319
11272.07,16.70581
11277.86,16.68034
11283.64,16.70672
11289.43,16.75684
11295.21,16.62825
11301.0,16.69817
11306.79,16.81545
11312.57,16.74532
11318.36,16.68023
11324.14,16.81601
11329.93,16.81517
11335.71,16.83347
11341.5,16.75125
11347.28,16.84567
11353.07,16.85921
11358.86,16.81162
11364.64,16.79819
11370.43,16.82148
11376.21,16.78889
11382.0,16.9092
11387.78,16.85419
11393.57,16.91087
11399.35,16.91142
11405.14,16.86352
11410.92,16.89079
11416.71,16.88746
11422.5,16.91786
11428.28,16.94534
11434.07,16.81337
11439.85,16.96077
11445.64,16.85525
11451.42,17.06808
11457.21,17.00438
11462.99,16.9412
11468.78,17.02274
11474.57,17.02488
11480.35,17.06665
11486.14,17.05926
11491.92,17.1296
11497.71,17.01531
11503.49,17.04162
11509.28,17.13873
11515.06,17.00735
11520.85,17.12306
11526.63,17.13302
11532.42,16.98152
11538.21,17.09497
11543.99,17.03959
11549.78,17.1504
11555.56,17.07534
11561.35,17.00116
11567.13,17.04753
11572.92,17.08487
11578.7,17.14966
11584.49,17.18919
11590.28,17.19455
11596.06,17.20209
11601.85,17.17759
11607.63,17.11385
11613.42,17.16193
11619.2,17.23618
11624.99,17.19804
11630.77,17.16435
11636.56,17.16761
11642.34,17.11726
11648.13,17.18036
11653.92,17.11163
11659.7,17.33829
11665.49,17.08326
11671.27,17.2503
11677.06,17.23422
11682.84,17.16259
11688.63,17.17246
11694.41,17.21816
11700.2,17.02917
11705.99,17.22746
11711.77,17.12515
11717.56,17.19049
11723.34,17.21906
11729.13,17.1019
11734.91,17.02299
11740.7,17.22112
11746.48,17.32111
11752.27,17.24297
11758.05,17.17332
11763.84,17.24737
11769.63,17.10251
11775.41,17.25261
11781.2,17.06565
11786.98,17.03368
11792.77,17.14292
11798.55,17.05211
11804.34,17.01135
11810.12,17.10146
11815.91,17.07125
11821.7,17.12843
11827.48,17.04857
11833.27,17.206
11839.05,17.11505
11844.84,17.13554
11850.62,17.02028
11856.41,17.09999
11862.19,17.03617
11867.98,17.29534
11873.76,17.06296
11879.55,17.10789
11885.34,16.90239
11891.12,17.08603
11896.91,17.10106
11902.69,17.02567
11908.48,17.08547
11914.26,16.92226
11920.05,17.14893
11925.83,17.13163
11931.62,17.12974
11937.41,17.04556
11943.19,16.99468
11948.98,17.12656
11954.76,17.01854
11960.55,17.08752
11966.33,17.11321
11972.12,16.97584
11977.9,16.98091
11983.69,17.04296
11989.47,17.18144
11995.26,17.02094
11999.12,17.13083