File: Data/NIR/N1476LDPE_6.csv
Wavenumber,Intensity
3999.706,3.231632
4005.491,3.233125
4011.277,3.232858
4017.062,3.24178
4022.848,3.241681
4028.633,3.245034
4034.419,3.250364
4040.204,3.252644
4045.99,3.25584
4051.775,3.25778
4057.561,3.260208
4063.346,3.258953
4069.132,3.265759
4074.917,3.271916
4080.703,3.268202
4086.488,3.275014
4092.274,3.272809
4098.059,3.272377
4103.845,3.277615
4109.63,3.280271
4115.416,3.282766
4121.201,3.281777
4126.987,3.281102
4132.772,3.284181
4138.558,3.279881
4144.343,3.286405
4150.129,3.286098
4155.914,3.289409
4161.7,3.288688
4167.485,3.294341
4173.271,3.300663
4179.056,3.306178
4184.842,3.313573
4190.627,3.318166
4196.413,3.328068
4202.198,3.338725
4207.983,3.343331
4213.769,3.35582
4219.555,3.36144
4225.34,3.363728
4231.125,3.375994
4236.911,3.377961
4242.697,3.381721
4248.482,3.380236
4254.268,3.385432
4260.053,3.390505
4265.838,3.395703
4271.624,3.399137
4277.41,3.407747
4283.195,3.40579
4288.98,3.410496
4294.766,3.413249
4300.552,3.412684
4306.337,3.413651
4312.123,3.407961
4317.908,3.406031
4323.693,3.404373
4329.479,3.404355
4335.265,3.407672
4341.05,3.406152
4346.835,3.411464
4352.621,3.41481
4358.407,3.417093
4364.192,3.425563
4369.978,3.430051
4375.763,3.431947
4381.548,3.440207
4387.334,3.445384
4393.12,3.455173
4398.905,3.468633
4404.69,3.49015
4410.476,3.517985
4416.262,3.552866
4422.047,3.59023
4427.833,3.633517
4433.618,3.670622
4439.403,3.714503
4445.189,3.754312
4450.975,3.806321
4456.76,3.858498
4462.545,3.909637
4468.331,3.959554
4474.116,4.005707
4479.902,4.05086
4485.688,4.099936
4491.473,4.14328
4497.258,4.192538
4503.044,4.239835
4508.83,4.296759
4514.615,4.343305
4520.4,4.395743
4526.186,4.444392
4531.971,4.497544
4537.757,4.552591
4543.542,4.604807
4549.328,4.66522
4555.113,4.727429
4560.899,4.787957
4566.685,4.840686
4572.47,4.891395
4578.255,4.929897
4584.041,4.967084
4589.826,5.002892
4595.612,5.029937
4601.397,5.051556
4607.183,5.070239
4612.968,5.092329
4618.754,5.116949
4624.539,5.139414
4630.325,5.155196
4636.11,5.17399
4641.896,5.174265
4647.681,5.177618
4653.467,5.163505
4659.252,5.124202
4665.038,5.07935
4670.823,5.094034
4676.609,5.158825
4682.394,5.215339
4688.18,5.246773
4693.965,5.261125
4699.751,5.268282
4705.536,5.26475
4711.322,5.261427
4717.107,5.244373
4722.893,5.219583
4728.678,5.187593
4734.464,5.167289
4740.249,5.151494
4746.035,5.135666
4751.82,5.123495
4757.605,5.101645
4763.391,5.083231
4769.177,5.04024
4774.962,5.003048
4780.748,4.98205
4786.533,4.967626
4792.319,4.953981
4798.104,4.939787
4803.89,4.919723
4809.675,4.889081
4815.46,4.850896
4821.246,4.818894
4827.032,4.786039
4832.817,4.761602
4838.603,4.72413
4844.388,4.681465
4850.174,4.634581
4855.959,4.597155
4861.745,4.568977
4867.53,4.547276
4873.315,4.546793
4879.101,4.555293
4884.887,4.574152
4890.672,4.583349
4896.458,4.597318
4902.243,4.608652
4908.028,4.618217
4913.814,4.617626
4919.6,4.616721
4925.385,4.611545
4931.17,4.611557
4936.956,4.604364
4942.742,4.592561
4948.527,4.565596
4954.313,4.505685
4960.098,4.429016
4965.883,4.398691
4971.669,4.425382
4977.455,4.447736
4983.24,4.473407
4989.025,4.50563
4994.811,4.550773
5000.597,4.594283
5006.382,4.630987
5012.167,4.645648
5017.953,4.650338
5023.738,4.663538
5029.524,4.681613
5035.31,4.694304
5041.095,4.696414
5046.88,4.697139
5052.666,4.69053
5058.451,4.664817
5064.237,4.655427
5070.022,4.653671
5075.808,4.655101
5081.593,4.650303
5087.379,4.644006
5093.165,4.637803
5098.95,4.628402
5104.735,4.633411
5110.521,4.643581
5116.307,4.661548
5122.092,4.668509
5127.877,4.681448
5133.663,4.687317
5139.448,4.681069
5145.234,4.669625
5151.02,4.652817
5156.805,4.64258
5162.59,4.63865
5168.376,4.633397
5174.161,4.634455
5179.947,4.631815
5185.732,4.629177
5191.518,4.623636
5197.303,4.637586
5203.089,4.645206
5208.874,4.648696
5214.66,4.632441
5220.445,4.639958
5226.231,4.654793
5232.016,4.658185
5237.802,4.660474
5243.587,4.682659
5249.373,4.687082
5255.158,4.691381
5260.944,4.69403
5266.729,4.686798
5272.515,4.676338
5278.3,4.679361
5284.086,4.686796
5289.871,4.696781
5295.657,4.671005
5301.442,4.657454
5307.228,4.652728
5313.013,4.652961
5318.799,4.700732
5324.584,4.72509
5330.37,4.729003
5336.155,4.729778
5341.94,4.686824
5347.726,4.641654
5353.512,4.606658
5359.297,4.547495
5365.083,4.517492
5370.868,4.479624
5376.654,4.470123
5382.439,4.444479
5388.225,4.419395
5394.01,4.402228
5399.796,4.351543
5405.581,4.315305
5411.367,4.283424
5417.152,4.20661
5422.938,4.180584
5428.723,4.17831
5434.509,4.160044
5440.294,4.157753
5446.08,4.13719
5451.865,4.118137
5457.65,4.107648
5463.436,4.101326
5469.222,4.08648
5475.007,4.076271
5480.792,4.039106
5486.578,4.024571
5492.363,4.01884
5498.149,4.013601
5503.935,4.017219
5509.72,4.0249
5515.505,4.03923
5521.291,4.046816
5527.077,4.035984
5532.862,4.033948
5538.647,4.028349
5544.433,4.022143
5550.219,4.016208
5556.004,4.013834
5561.79,4.023845
5567.575,4.049547
5573.36,4.081817
5579.146,4.110739
5584.932,4.142189
5590.717,4.148679
5596.502,4.137311
5602.288,4.112644
5608.073,4.076003
5613.859,4.042387
5619.645,4.007667
5625.43,3.97642
5631.215,3.944686
5637.001,3.906221
5642.786,3.861357
5648.572,3.793205
5654.357,3.707758
5660.143,3.661263
5665.929,3.656506
5671.714,3.675523
5677.5,3.712741
5683.285,3.752597
5689.07,3.783507
5694.856,3.825005
5700.642,3.874187
5706.427,3.926969
5712.212,3.966183
5717.998,3.965076
5723.783,3.912532
5729.569,3.815188
5735.354,3.784503
5741.14,3.756811
5746.925,3.708465
5752.711,3.666956
5758.496,3.635039
5764.282,3.61058
5770.067,3.592266
5775.853,3.590786
5781.638,3.594805
5787.424,3.601493
5793.209,3.617569
5798.995,3.629239
5804.78,3.647647
5810.566,3.661743
5816.352,3.676195
5822.137,3.709824
5827.922,3.73709
5833.708,3.777697
5839.493,3.827747
5845.279,3.889007
5851.064,3.973593
5856.85,4.103496
5862.635,4.26897
5868.421,4.466894
5874.206,4.697505
5879.992,4.923414
5885.777,5.145101
5891.563,5.331119
5897.348,5.47137
5903.134,5.588219
5908.919,5.731478
5914.705,5.912249
5920.49,6.130653
5926.276,6.352533
5932.061,6.568988
5937.847,6.766388
5943.632,6.939995
5949.418,7.105162
5955.203,7.268073
5960.989,7.441688
5966.774,7.628637
5972.56,7.805512
5978.345,7.968843
5984.131,8.120879
5989.916,8.271218
5995.702,8.398692
6001.487,8.528749
6007.272,8.644698
6013.058,8.766167
6018.844,8.868773
6024.629,8.974333
6030.415,9.072006
6036.2,9.162954
6041.985,9.23456
6047.771,9.312335
6053.557,9.382003
6059.342,9.447501
6065.128,9.503704
6070.913,9.5573
6076.698,9.608683
6082.484,9.651462
6088.27,9.68724
6094.055,9.729162
6099.841,9.762884
6105.626,9.792309
6111.412,9.824149
6117.197,9.856694
6122.982,9.892675
6128.768,9.933482
6134.554,9.968684
6140.339,10.0085
6146.125,10.04588
6151.91,10.07776
6157.695,10.11257
6163.481,10.15038
6169.267,10.18231
6175.052,10.22511
6180.837,10.25255
6186.623,10.27381
6192.408,10.29816
6198.194,10.32586
6203.979,10.34364
6209.765,10.36154
6215.551,10.38677
6221.336,10.40173
6227.121,10.42406
6232.907,10.43995
6238.692,10.44736
6244.478,10.45498
6250.264,10.45887
6256.049,10.4691
6261.834,10.47659
6267.62,10.484
6273.405,10.49288
6279.191,10.5046
6284.977,10.50351
6290.762,10.51122
6296.547,10.52242
6302.333,10.52217
6308.118,10.52254
6313.904,10.52867
6319.689,10.52212
6325.475,10.50955
6331.26,10.50495
6337.046,10.49442
6342.831,10.4752
6348.617,10.45375
6354.402,10.4339
6360.188,10.41044
6365.974,10.3758
6371.759,10.32545
6377.544,10.29204
6383.33,10.26903
6389.115,10.25663
6394.901,10.24413
6400.687,10.21217
6406.472,10.1624
6412.257,10.09919
6418.043,10.04573
6423.828,10.01531
6429.614,9.997709
6435.399,9.965997
6441.185,9.910342
6446.97,9.825166
6452.756,9.742515
6458.541,9.640464
6464.327,9.49746
6470.112,9.275161
6475.897,9.010543
6481.684,8.852993
6487.469,8.867147
6493.254,8.951874
6499.04,9.043543
6504.825,9.121505
6510.61,9.19301
6516.396,9.249619
6522.182,9.28468
6527.967,9.323138
6533.753,9.359104
6539.538,9.392385
6545.324,9.416839
6551.109,9.443775
6556.895,9.460859
6562.68,9.487273
6568.466,9.519031
6574.251,9.543563
6580.037,9.575054
6585.822,9.594689
6591.607,9.600068
6597.393,9.605856
6603.179,9.61277
6608.964,9.613295
6614.75,9.611009
6620.535,9.605492
6626.32,9.601103
6632.106,9.580242
6637.892,9.565155
6643.677,9.544119
6649.463,9.521317
6655.248,9.499656
6661.034,9.47444
6666.819,9.439563
6672.604,9.410658
6678.39,9.382318
6684.176,9.347865
6689.961,9.300756
6695.747,9.264001
6701.532,9.216778
6707.317,9.164543
6713.103,9.110545
6718.889,9.062564
6724.674,9.008106
6730.459,8.968647
6736.245,8.913665
6742.03,8.867061
6747.816,8.822173
6753.602,8.772254
6759.387,8.718458
6765.173,8.669712
6770.958,8.612274
6776.743,8.539355
6782.529,8.459659
6788.314,8.372195
6794.1,8.274529
6799.886,8.173273
6805.671,8.081891
6811.457,7.986829
6817.242,7.884022
6823.027,7.791669
6828.813,7.676736
6834.599,7.592378
6840.384,7.527209
6846.169,7.490547
6851.955,7.44719
6857.74,7.393528
6863.526,7.344554
6869.312,7.292783
6875.097,7.229108
6880.882,7.159236
6886.668,7.081836
6892.453,7.007377
6898.239,6.947251
6904.024,6.891158
6909.81,6.837924
6915.596,6.786562
6921.381,6.72267
6927.166,6.64183
6932.952,6.552687
6938.737,6.444601
6944.523,6.342835
6950.309,6.274573
6956.094,6.262948
6961.879,6.258143
6967.665,6.261112
6973.45,6.256574
6979.236,6.257387
6985.021,6.244793
6990.807,6.217388
6996.592,6.17895
7002.378,6.136471
7008.163,6.078854
7013.949,6.030995
7019.734,5.978357
7025.52,5.959025
7031.305,5.939874
7037.091,5.922661
7042.876,5.874448
7048.662,5.78215
7054.447,5.651779
7060.232,5.552824
7066.019,5.560021
7071.804,5.722592
7077.589,5.918869
7083.375,6.08516
7089.16,6.191417
7094.946,6.27778
7100.731,6.357545
7106.517,6.48663
7112.302,6.601927
7118.088,6.7202
7123.873,6.796309
7129.659,6.82412
7135.444,6.800688
7141.229,6.72521
7147.015,6.599792
7152.801,6.413612
7158.586,6.095963
7164.372,5.65835
7170.157,5.331652
7175.942,5.346934
7181.729,5.604635
7187.514,5.879484
7193.299,6.166098
7199.085,6.431874
7204.87,6.721532
7210.655,6.945649
7216.441,7.169227
7222.227,7.389295
7228.012,7.641334
7233.798,7.875334
7239.583,8.070818
7245.369,8.261765
7251.154,8.468884
7256.939,8.647773
7262.725,8.854166
7268.511,9.043089
7274.296,9.224853
7280.082,9.400848
7285.867,9.584629
7291.652,9.745641
7297.438,9.915013
7303.224,10.0658
7309.009,10.25365
7314.794,10.40135
7320.58,10.53822
7326.365,10.68085
7332.151,10.74678
7337.937,10.85455
7343.722,10.92993
7349.508,10.97694
7355.293,11.06365
7361.079,11.12274
7366.864,11.19864
7372.649,11.26066
7378.435,11.33377
7384.221,11.3816
7390.006,11.43133
7395.792,11.47956
7401.577,11.50522
7407.362,11.53966
7413.148,11.56253
7418.934,11.59046
7424.719,11.59843
7430.504,11.60794
7436.29,11.62765
7442.075,11.63758
7447.861,11.66337
7453.646,11.67098
7459.432,11.67884
7465.218,11.68883
7471.003,11.68779
7476.788,11.70954
7482.574,11.70607
7488.359,11.70405
7494.145,11.70966
7499.931,11.70831
7505.716,11.70074
7511.501,11.68557
7517.287,11.69065
7523.072,11.68886
7528.858,11.67924
7534.644,11.67371
7540.429,11.66669
7546.214,11.65276
7552.0,11.64211
7557.785,11.63604
7563.571,11.62703
7569.356,11.6153
7575.142,11.59695
7580.927,11.59843
7586.713,11.57979
7592.498,11.56752
7598.284,11.54686
7604.069,11.52918
7609.854,11.51314
7615.641,11.48592
7621.426,11.47407
7627.211,11.44892
7632.997,11.42467
7638.782,11.39536
7644.568,11.36973
7650.354,11.34498
7656.139,11.33132
7661.924,11.313
7667.71,11.28809
7673.495,11.27572
7679.281,11.25528
7685.066,11.22959
7690.852,11.23162
7696.637,11.21922
7702.423,11.20023
7708.208,11.18537
7713.994,11.17571
7719.779,11.15492
7725.564,11.14035
7731.35,11.12345
7737.136,11.1032
7742.921,11.09259
7748.707,11.08648
7754.492,11.05668
7760.277,11.03539
7766.063,11.02459
7771.849,10.99427
7777.634,10.98519
7783.42,10.9714
7789.205,10.95552
7794.991,10.9477
7800.776,10.92815
7806.562,10.91201
7812.347,10.89332
7818.133,10.87054
7823.918,10.8407
7829.704,10.81019
7835.489,10.80229
7841.274,10.7709
7847.06,10.73907
7852.846,10.72133
7858.631,10.68558
7864.417,10.65046
7870.202,10.61272
7875.987,10.58786
7881.773,10.53459
7887.559,10.48719
7893.344,10.44957
7899.13,10.41845
7904.915,10.3607
7910.7,10.31759
7916.486,10.2664
7922.271,10.21415
7928.057,10.16611
7933.843,10.10186
7939.628,10.05197
7945.414,9.994899
7951.199,9.930593
7956.984,9.856579
7962.77,9.785504
7968.556,9.711325
7974.341,9.644302
7980.126,9.570362
7985.912,9.493229
7991.697,9.412311
7997.483,9.336452
8003.269,9.251185
8009.054,9.162232
8014.839,9.068998
8020.625,8.983906
8026.41,8.872097
8032.196,8.780123
8037.981,8.672996
8043.767,8.563846
8049.553,8.454428
8055.338,8.356099
8061.124,8.226771
8066.909,8.116986
8072.694,7.990362
8078.48,7.872819
8084.266,7.749792
8090.051,7.604261
8095.836,7.483672
8101.622,7.358363
8107.407,7.219072
8113.192,7.05597
8118.979,6.907292
8124.764,6.756477
8130.55,6.614355
8136.335,6.447272
8142.12,6.290494
8147.906,6.144323
8153.691,5.995571
8159.477,5.82123
8165.263,5.663715
8171.048,5.520404
8176.833,5.379289
8182.619,5.239086
8188.404,5.127766
8194.189,5.032359
8199.976,4.947762
8205.761,4.870708
8211.546,4.823123
8217.332,4.797165
8223.117,4.790963
8228.902,4.797007
8234.688,4.805902
8240.474,4.815528
8246.259,4.840649
8252.045,4.843118
8257.83,4.878608
8263.616,4.921907
8269.401,4.967771
8275.187,5.033301
8280.973,5.113046
8286.758,5.206506
8292.543,5.28499
8298.329,5.386096
8304.114,5.483545
8309.899,5.576388
8315.686,5.691099
8321.471,5.785122
8327.256,5.88996
8333.042,5.989079
8338.827,6.106904
8344.612,6.227208
8350.398,6.354021
8356.184,6.486821
8361.969,6.611415
8367.755,6.72927
8373.54,6.849841
8379.325,6.97204
8385.111,7.062635
8390.896,7.158194
8396.683,7.22943
8402.468,7.252833
8408.253,7.286739
8414.039,7.3107
8419.824,7.288098
8425.609,7.345031
8431.396,7.410077
8437.181,7.524048
8442.966,7.64471
8448.752,7.80511
8454.537,7.950007
8460.322,8.077797
8466.108,8.191934
8471.894,8.28902
8477.679,8.41206
8483.465,8.554699
8489.25,8.657024
8495.035,8.765637
8500.821,8.845983
8506.606,8.896601
8512.392,8.945147
8518.178,9.000998
8523.963,9.053069
8529.748,9.099508
8535.534,9.114254
8541.319,9.082668
8547.105,9.009442
8552.891,8.907475
8558.676,8.77397
8564.462,8.712597
8570.247,8.792168
8576.032,8.934234
8581.818,9.092595
8587.604,9.287602
8593.389,9.491333
8599.175,9.689064
8604.96,9.888164
8610.745,10.08263
8616.531,10.27744
8622.316,10.44754
8628.102,10.59129
8633.888,10.74121
8639.673,10.85693
8645.458,10.98055
8651.244,11.08435
8657.029,11.18029
8662.814,11.23734
8668.601,11.31578
8674.386,11.38988
8680.172,11.47565
8685.957,11.5151
8691.742,11.61146
8697.528,11.68833
8703.313,11.77979
8709.099,11.86017
8714.885,11.96211
8720.67,12.04243
8726.455,12.12425
8732.241,12.21303
8738.026,12.29362
8743.812,12.37812
8749.598,12.43933
8755.383,12.4961
8761.168,12.56682
8766.954,12.63284
8772.739,12.69102
8778.524,12.73436
8784.311,12.78071
8790.096,12.79245
8795.881,12.84421
8801.667,12.87743
8807.452,12.9153
8813.237,12.93239
8819.023,12.94478
8824.809,12.95804
8830.595,12.97253
8836.38,13.00337
8842.165,13.01769
8847.951,13.03377
8853.736,13.01362
8859.521,13.03615
8865.308,13.0628
8871.093,13.06736
8876.878,13.07279
8882.664,13.0647
8888.449,13.07745
8894.234,13.07093
8900.021,13.0788
8905.806,13.07242
8911.591,13.05209
8917.377,13.06999
8923.162,13.0534
8928.947,13.05666
8934.733,13.06405
8940.519,13.06741
8946.304,13.06995
8952.09,13.05375
8957.875,13.06708
8963.661,13.07199
8969.446,13.05908
8975.231,13.0696
8981.018,13.07792
8986.803,13.08291
8992.588,13.07082
8998.374,13.0764
9004.159,13.09365
9009.944,13.09935
9015.73,13.09493
9021.516,13.11316
9027.301,13.1162
9033.087,13.13268
9038.872,13.11791
9044.657,13.15331
9050.443,13.12808
9056.229,13.1514
9062.014,13.14555
9067.8,13.15211
9073.585,13.1712
9079.37,13.15653
9085.156,13.15486
9090.941,13.15762
9096.727,13.18417
9102.513,13.18225
9108.298,13.1821
9114.084,13.15723
9119.869,13.16204
9125.654,13.16663
9131.44,13.15301
9137.226,13.1582
9143.011,13.15582
9148.797,13.14378
9154.582,13.15277
9160.367,13.12394
9166.153,13.14537
9171.938,13.1208
9177.724,13.11515
9183.51,13.11594
9189.295,13.0999
9195.08,13.09228
9200.866,13.08735
9206.651,13.10333
9212.437,13.09364
9218.223,13.06994
9224.008,13.07547
9229.793,13.05626
9235.579,13.04994
9241.364,13.05497
9247.15,13.05437
9252.936,13.05793
9258.721,13.03057
9264.507,13.03004
9270.292,13.01919
9276.077,13.00842
9281.863,13.01478
9287.648,13.00718
9293.434,12.97596
9299.22,13.01167
9305.005,12.99308
9310.79,12.99079
9316.576,13.00877
9322.361,13.0002
9328.146,13.00684
9333.933,13.00977
9339.718,13.00525
9345.503,13.00349
9351.289,12.94472
9357.074,12.98295
9362.859,12.97127
9368.646,12.96354
9374.431,12.94802
9380.217,12.92873
9386.002,12.9218
9391.787,12.91397
9397.573,12.89861
9403.358,12.90387
9409.144,12.87149
9414.93,12.84553
9420.715,12.83374
9426.5,12.81227
9432.286,12.814
9438.071,12.79668
9443.856,12.78113
9449.643,12.75177
9455.428,12.74773
9461.213,12.72453
9466.999,12.71638
9472.784,12.69865
9478.569,12.65352
9484.355,12.6663
9490.141,12.67504
9495.926,12.65521
9501.712,12.64458
9507.497,12.64443
9513.282,12.61892
9519.068,12.62319
9524.854,12.59473
9530.64,12.58316
9536.425,12.58778
9542.21,12.58825
9547.996,12.54319
9553.781,12.54762
9559.566,12.51329
9565.353,12.50878
9571.138,12.48501
9576.923,12.50814
9582.709,12.49122
9588.494,12.44922
9594.279,12.45165
9600.065,12.44898
9605.851,12.46787
9611.636,12.47415
9617.422,12.50505
9623.207,12.50475
9628.992,12.54939
9634.778,12.55472
9640.563,12.55495
9646.349,12.59063
9652.135,12.6354
9657.92,12.63417
9663.706,12.67326
9669.491,12.70213
9675.276,12.72657
9681.063,12.76009
9686.848,12.76116
9692.633,12.78546
9698.419,12.80739
9704.204,12.84336
9709.989,12.86218
9715.775,12.89079
9721.561,12.9471
9727.346,12.94511
9733.132,12.98545
9738.917,13.0223
9744.702,12.99471
9750.488,13.0097
9756.273,13.05567
9762.059,13.06788
9767.845,13.07076
9773.63,13.06621
9779.415,13.09346
9785.201,13.07094
9790.986,13.09713
9796.771,13.06632
9802.558,13.06095
9808.343,13.06695
9814.129,13.10093
9819.914,13.09241
9825.699,13.07368
9831.485,13.11479
9837.271,13.09801
9843.056,13.14427
9848.842,13.1605
9854.627,13.16935
9860.412,13.19537
9866.198,13.25399
9871.983,13.20696
9877.769,13.26723
9883.555,13.32915
9889.34,13.3007
9895.125,13.33955
9900.911,13.39417
9906.696,13.39308
9912.481,13.4249
9918.268,13.39903
9924.053,13.43115
9929.838,13.45071
9935.624,13.46054
9941.409,13.47554
9947.195,13.51905
9952.98,13.51423
9958.766,13.53873
9964.552,13.55057
9970.337,13.55804
9976.122,13.59821
9981.908,13.59497
9987.693,13.61887
9993.479,13.59926
9999.265,13.6357
10005.05,13.62809
10010.83,13.62235
10016.62,13.66512
10022.41,13.65104
10028.19,13.66282
10033.98,13.68879
10039.76,13.69838
10045.55,13.69096
10051.33,13.72929
10057.12,13.73027
10062.9,13.74492
10068.69,13.72667
10074.48,13.76402
10080.26,13.73977
10086.05,13.78376
10091.83,13.79265
10097.62,13.77114
10103.4,13.77339
10109.19,13.7788
10114.97,13.81011
10120.76,13.7469
10126.54,13.797
10132.33,13.78864
10138.12,13.74089
10143.9,13.80084
10149.69,13.80183
10155.47,13.82939
10161.26,13.78552
10167.04,13.78809
10172.83,13.79742
10178.61,13.80406
10184.4,13.82068
10190.19,13.83317
10195.97,13.85533
10201.76,13.7857
10207.54,13.80262
10213.33,13.79416
10219.11,13.83219
10224.9,13.79003
10230.68,13.79443
10236.47,13.79411
10242.25,13.80375
10248.04,13.79639
10253.83,13.81536
10259.61,13.7648
10265.4,13.78515
10271.18,13.74808
10276.97,13.79418
10282.75,13.78495
10288.54,13.76139
10294.32,13.78553
10300.11,13.74597
10305.9,13.73406
10311.68,13.70122
10317.47,13.67629
10323.25,13.67016
10329.04,13.6757
10334.82,13.67349
10340.61,13.69773
10346.39,13.66688
10352.18,13.73498
10357.96,13.7282
10363.75,13.73619
10369.54,13.72124
10375.32,13.72004
10381.11,13.71059
10386.89,13.72986
10392.68,13.68607
10398.46,13.68793
10404.25,13.68878
10410.03,13.67914
10415.82,13.68444
10421.61,13.70278
10427.39,13.70393
10433.18,13.68577
10438.96,13.60695
10444.75,13.66911
10450.53,13.59962
10456.32,13.58672
10462.1,13.61534
10467.89,13.53493
10473.67,13.52684
10479.46,13.56373
10485.25,13.5354
10491.03,13.55739
10496.82,13.47935
10502.6,13.48338
10508.39,13.45456
10514.17,13.42396
10519.96,13.38435
10525.74,13.34777
10531.53,13.30132
10537.32,13.29826
10543.1,13.30048
10548.89,13.23213
10554.67,13.15908
10560.46,13.14936
10566.24,13.07089
10572.03,13.03421
10577.81,12.95866
10583.6,12.88852
10589.38,12.85638
10595.17,12.75174
10600.96,12.71219
10606.74,12.67093
10612.53,12.51476
10618.31,12.52636
10624.1,12.41489
10629.88,12.33315
10635.67,12.20987
10641.45,12.1581
10647.24,12.02344
10653.03,11.93508
10658.81,11.83894
10664.6,11.75463
10670.38,11.72357
10676.17,11.61281
10681.95,11.53856
10687.74,11.50466
10693.52,11.41654
10699.31,11.41395
10705.09,11.33578
10710.88,11.31959
10716.67,11.33025
10722.45,11.31804
10728.24,11.35255
10734.02,11.29239
10739.81,11.35434
10745.59,11.38006
10751.38,11.35736
10757.16,11.41735
10762.95,11.42962
10768.74,11.44009
10774.52,11.57691
10780.31,11.54679
10786.09,11.63073
10791.88,11.66853
10797.66,11.7315
10803.45,11.85159
10809.23,11.93465
10815.02,11.93669
10820.8,12.00002
10826.59,12.03754
10832.38,12.12036
10838.16,12.17613
10843.95,12.2687
10849.73,12.31914
10855.52,12.33336
10861.3,12.44164
10867.09,12.56831
10872.87,12.55927
10878.66,12.61895
10884.45,12.6294
10890.23,12.71631
10896.02,12.7575
10901.8,12.76548
10907.59,12.84475
10913.37,12.97467
10919.16,13.01629
10924.94,13.00843
10930.73,13.06126
10936.51,13.05064
10942.3,13.17706
10948.09,13.2158
10953.87,13.19983
10959.66,13.23675
10965.44,13.34748
10971.23,13.37202
10977.01,13.44153
10982.8,13.4565
10988.58,13.5118
10994.37,13.53633
11000.16,13.50492
11005.94,13.60112
11011.73,13.58582
11017.51,13.61668
11023.3,13.62519
11029.08,13.64345
11034.87,13.74455
11040.65,13.71504
11046.44,13.7568
11052.22,13.6912
11058.01,13.74218
11063.79,13.73317
11069.58,13.76292
11075.37,13.75491
11081.15,13.81628
11086.94,13.79086
11092.72,13.80117
11098.51,13.81733
11104.29,13.82304
11110.08,13.80621
11115.87,13.7156
11121.65,13.81581
11127.44,13.82846
11133.22,13.83523
11139.01,13.88536
11144.79,13.88019
11150.58,13.87512
11156.36,13.90655
11162.15,13.96598
11167.93,13.91941
11173.72,13.93995
11179.5,13.95208
11185.29,14.03457
11191.08,14.02454
11196.86,14.02813
11202.65,14.03013
11208.43,14.0706
11214.22,14.06242
11220.0,14.11104
11225.79,14.08857
11231.58,14.07075
11237.36,14.07626
11243.15,14.16192
11248.93,14.18707
11254.72,14.18569
11260.5,14.15456
11266.29,14.22809
11272.07,14.17135
11277.86,14.16493
11283.64,14.23991
11289.43,14.23159
11295.21,14.19123
11301.0,14.29026
11306.79,14.23432
11312.57,14.21722
11318.36,14.16564
11324.14,14.22084
11329.93,14.22802
11335.71,14.32802
11341.5,14.23665
11347.28,14.21692
11353.07,14.33739
11358.86,14.30315
11364.64,14.35976
11370.43,14.34502
11376.21,14.35297
11382.0,14.38863
11387.78,14.31276
11393.57,14.29634
11399.35,14.36982
11405.14,14.35386
11410.92,14.33264
11416.71,14.36986
11422.5,14.31813
11428.28,14.40344
11434.07,14.34421
11439.85,14.3597
11445.64,14.41318
11451.42,14.43449
11457.21,14.37275
11462.99,14.44009
11468.78,14.4119
11474.57,14.43331
11480.35,14.34815
11486.14,14.33087
11491.92,14.40544
11497.71,14.45726
11503.49,14.38214
11509.28,14.35524
11515.06,14.42107
11520.85,14.43394
11526.63,14.48726
11532.42,14.52276
11538.21,14.40717
11543.99,14.43616
11549.78,14.51249
11555.56,14.42778
11561.35,14.56954
11567.13,14.47128
11572.92,14.39936
11578.7,14.47755
11584.49,14.59108
11590.28,14.52513
11596.06,14.52259
11601.85,14.52745
11607.63,14.45273
11613.42,14.54724
11619.2,14.45483
11624.99,14.51868
11630.77,14.54426
11636.56,14.56593
11642.34,14.41427
11648.13,14.51822
11653.92,14.51822
11659.7,14.47526
11665.49,14.37803
11671.27,14.46281
11677.06,14.47108
11682.84,14.62941
11688.63,14.64733
11694.41,14.52974
11700.2,14.52214
11705.99,14.51271
11711.77,14.57893
11717.56,14.44794
11723.34,14.56584
11729.13,14.47183
11734.91,14.56221
11740.7,14.4602
11746.48,14.56671
11752.27,14.51201
11758.05,14.42264
11763.84,14.33314
11769.63,14.34795
11775.41,14.58445
11781.2,14.48195
11786.98,14.4214
11792.77,14.42483
11798.55,14.48117
11804.34,14.47644
11810.12,14.55293
11815.91,14.42359
11821.7,14.42528
11827.48,14.46019
11833.27,14.53545
11839.05,14.42129
11844.84,14.46424
11850.62,14.30481
11856.41,14.32888
11862.19,14.36802
11867.98,14.36264
11873.76,14.57057
11879.55,14.36285
11885.34,14.48356
11891.12,14.2631
11896.91,14.36925
11902.69,14.39538
11908.48,14.55037
11914.26,14.56729
11920.05,14.44696
11925.83,14.40924
11931.62,14.38288
11937.41,14.44138
11943.19,14.43982
11948.98,14.39026
11954.76,14.39782
11960.55,14.45644
11966.33,14.41883
11972.12,14.28507
11977.9,14.39094
11983.69,14.36195
11989.47,14.26498
11995.26,14.31749
11999.12,14.37512