File: Data/NIR/N1476LDPE_4.csv
Wavenumber,Intensity
3999.706,3.220595
4005.491,3.227014
4011.277,3.220081
4017.062,3.224936
4022.848,3.225516
4028.633,3.238376
4034.419,3.238729
4040.204,3.241703
4045.99,3.247262
4051.775,3.248586
4057.561,3.246394
4063.346,3.248117
4069.132,3.254514
4074.917,3.257893
4080.703,3.258269
4086.488,3.264335
4092.274,3.258302
4098.059,3.262728
4103.845,3.261814
4109.63,3.263264
4115.416,3.269844
4121.201,3.267233
4126.987,3.270091
4132.772,3.269922
4138.558,3.272679
4144.343,3.278156
4150.129,3.270505
4155.914,3.275795
4161.7,3.278828
4167.485,3.281832
4173.271,3.291806
4179.056,3.293159
4184.842,3.300578
4190.627,3.303353
4196.413,3.308627
4202.198,3.321714
4207.983,3.325449
4213.769,3.341619
4219.555,3.34202
4225.34,3.349043
4231.125,3.357307
4236.911,3.358766
4242.697,3.367454
4248.482,3.362979
4254.268,3.365721
4260.053,3.370414
4265.838,3.378069
4271.624,3.383291
4277.41,3.393288
4283.195,3.390891
4288.98,3.394753
4294.766,3.39736
4300.552,3.397034
4306.337,3.401455
4312.123,3.389127
4317.908,3.389454
4323.693,3.384315
4329.479,3.387504
4335.265,3.38932
4341.05,3.393639
4346.835,3.397046
4352.621,3.404819
4358.407,3.399629
4364.192,3.406725
4369.978,3.415456
4375.763,3.416847
4381.548,3.429192
4387.334,3.432381
4393.12,3.445245
4398.905,3.465027
4404.69,3.48609
4410.476,3.52243
4416.262,3.561823
4422.047,3.604714
4427.833,3.645048
4433.618,3.680693
4439.403,3.723944
4445.189,3.766889
4450.975,3.815459
4456.76,3.86173
4462.545,3.914436
4468.331,3.955203
4474.116,3.9948
4479.902,4.039551
4485.688,4.078997
4491.473,4.117525
4497.258,4.152273
4503.044,4.201658
4508.83,4.247334
4514.615,4.287547
4520.4,4.333681
4526.186,4.375075
4531.971,4.418736
4537.757,4.466879
4543.542,4.516134
4549.328,4.564262
4555.113,4.61655
4560.899,4.6695
4566.685,4.716522
4572.47,4.758661
4578.255,4.794635
4584.041,4.822948
4589.826,4.854484
4595.612,4.877372
4601.397,4.89595
4607.183,4.915394
4612.968,4.934249
4618.754,4.950606
4624.539,4.967929
4630.325,4.992429
4636.11,4.998542
4641.896,5.003399
4647.681,5.004047
4653.467,4.992266
4659.252,4.960846
4665.038,4.923849
4670.823,4.935569
4676.609,4.991337
4682.394,5.040306
4688.18,5.068355
4693.965,5.08262
4699.751,5.088087
4705.536,5.088377
4711.322,5.084143
4717.107,5.068678
4722.893,5.046664
4728.678,5.022049
4734.464,5.007217
4740.249,4.994649
4746.035,4.981464
4751.82,4.969769
4757.605,4.950313
4763.391,4.936973
4769.177,4.902036
4774.962,4.868447
4780.748,4.854152
4786.533,4.842709
4792.319,4.830632
4798.104,4.821133
4803.89,4.79839
4809.675,4.772718
4815.46,4.742605
4821.246,4.711964
4827.032,4.689234
4832.817,4.666735
4838.603,4.63804
4844.388,4.604732
4850.174,4.558006
4855.959,4.525008
4861.745,4.5023
4867.53,4.485125
4873.315,4.484906
4879.101,4.496079
4884.887,4.508494
4890.672,4.51667
4896.458,4.526655
4902.243,4.539989
4908.028,4.547076
4913.814,4.546562
4919.6,4.545944
4925.385,4.542323
4931.17,4.540492
4936.956,4.535964
4942.742,4.528765
4948.527,4.505343
4954.313,4.452467
4960.098,4.383868
4965.883,4.359902
4971.669,4.38098
4977.455,4.403854
4983.24,4.426555
4989.025,4.451332
4994.811,4.492017
5000.597,4.528849
5006.382,4.55876
5012.167,4.574639
5017.953,4.576772
5023.738,4.588837
5029.524,4.604355
5035.31,4.615716
5041.095,4.616589
5046.88,4.619471
5052.666,4.611979
5058.451,4.592831
5064.237,4.583019
5070.022,4.582253
5075.808,4.584591
5081.593,4.580233
5087.379,4.572013
5093.165,4.566437
5098.95,4.561089
5104.735,4.568598
5110.521,4.578152
5116.307,4.585932
5122.092,4.595631
5127.877,4.607852
5133.663,4.612253
5139.448,4.609248
5145.234,4.59798
5151.02,4.581534
5156.805,4.572989
5162.59,4.570312
5168.376,4.567311
5174.161,4.568418
5179.947,4.564464
5185.732,4.560218
5191.518,4.562313
5197.303,4.568573
5203.089,4.579223
5208.874,4.576472
5214.66,4.567802
5220.445,4.5726
5226.231,4.584035
5232.016,4.5835
5237.802,4.587651
5243.587,4.606216
5249.373,4.604896
5255.158,4.611667
5260.944,4.61518
5266.729,4.617206
5272.515,4.606979
5278.3,4.608526
5284.086,4.611675
5289.871,4.618821
5295.657,4.605168
5301.442,4.590521
5307.228,4.581254
5313.013,4.586505
5318.799,4.625429
5324.584,4.649233
5330.37,4.650032
5336.155,4.646995
5341.94,4.615489
5347.726,4.574174
5353.512,4.533907
5359.297,4.497019
5365.083,4.469838
5370.868,4.437986
5376.654,4.427399
5382.439,4.411831
5388.225,4.387196
5394.01,4.368945
5399.796,4.327734
5405.581,4.294846
5411.367,4.258969
5417.152,4.198491
5422.938,4.178664
5428.723,4.166073
5434.509,4.15574
5440.294,4.144077
5446.08,4.135328
5451.865,4.117482
5457.65,4.10943
5463.436,4.103636
5469.222,4.090196
5475.007,4.074279
5480.792,4.047943
5486.578,4.032026
5492.363,4.023725
5498.149,4.02191
5503.935,4.02963
5509.72,4.034539
5515.505,4.046281
5521.291,4.049037
5527.077,4.049726
5532.862,4.046309
5538.647,4.038193
5544.433,4.034164
5550.219,4.030953
5556.004,4.028802
5561.79,4.038435
5567.575,4.062301
5573.36,4.090446
5579.146,4.120569
5584.932,4.144676
5590.717,4.14853
5596.502,4.14258
5602.288,4.121308
5608.073,4.084362
5613.859,4.052515
5619.645,4.020681
5625.43,3.991639
5631.215,3.962698
5637.001,3.927741
5642.786,3.883737
5648.572,3.809448
5654.357,3.721733
5660.143,3.667719
5665.929,3.666142
5671.714,3.687582
5677.5,3.7275
5683.285,3.771608
5689.07,3.801051
5694.856,3.845641
5700.642,3.890185
5706.427,3.947937
5712.212,3.981938
5717.998,3.983487
5723.783,3.930717
5729.569,3.828883
5735.354,3.802967
5741.14,3.773977
5746.925,3.718308
5752.711,3.670076
5758.496,3.630569
5764.282,3.60374
5770.067,3.584297
5775.853,3.582119
5781.638,3.582927
5787.424,3.595876
5793.209,3.613921
5798.995,3.626967
5804.78,3.650898
5810.566,3.666212
5816.352,3.687949
5822.137,3.721637
5827.922,3.750371
5833.708,3.798686
5839.493,3.846557
5845.279,3.908148
5851.064,3.992895
5856.85,4.111618
5862.635,4.264801
5868.421,4.437486
5874.206,4.630846
5879.992,4.827855
5885.777,5.016987
5891.563,5.174595
5897.348,5.287124
5903.134,5.388937
5908.919,5.514979
5914.705,5.665637
5920.49,5.848254
5926.276,6.038155
5932.061,6.22675
5937.847,6.395756
5943.632,6.536864
5949.418,6.682405
5955.203,6.817309
5960.989,6.972407
5966.774,7.130008
5972.56,7.28877
5978.345,7.427002
5984.131,7.560982
5989.916,7.689562
5995.702,7.802596
6001.487,7.91318
6007.272,8.013175
6013.058,8.117534
6018.844,8.213215
6024.629,8.307324
6030.415,8.390328
6036.2,8.469707
6041.985,8.534169
6047.771,8.602095
6053.557,8.665275
6059.342,8.718118
6065.128,8.770042
6070.913,8.819456
6076.698,8.86678
6082.484,8.900332
6088.27,8.932667
6094.055,8.970804
6099.841,8.999887
6105.626,9.026713
6111.412,9.055892
6117.197,9.083332
6122.982,9.117966
6128.768,9.153381
6134.554,9.184752
6140.339,9.219786
6146.125,9.254147
6151.91,9.279975
6157.695,9.313702
6163.481,9.352036
6169.267,9.378002
6175.052,9.411964
6180.837,9.44026
6186.623,9.461547
6192.408,9.483764
6198.194,9.509579
6203.979,9.522927
6209.765,9.543506
6215.551,9.561173
6221.336,9.573376
6227.121,9.594072
6232.907,9.607552
6238.692,9.617768
6244.478,9.622646
6250.264,9.631246
6256.049,9.639217
6261.834,9.648203
6267.62,9.652331
6273.405,9.659163
6279.191,9.669355
6284.977,9.673607
6290.762,9.677732
6296.547,9.685184
6302.333,9.685116
6308.118,9.686338
6313.904,9.692504
6319.689,9.686668
6325.475,9.671233
6331.26,9.672574
6337.046,9.663006
6342.831,9.648267
6348.617,9.630862
6354.402,9.610229
6360.188,9.595022
6365.974,9.553757
6371.759,9.512385
6377.544,9.483091
6383.33,9.465444
6389.115,9.453294
6394.901,9.445393
6400.687,9.418585
6406.472,9.3687
6412.257,9.312079
6418.043,9.270454
6423.828,9.244008
6429.614,9.22963
6435.399,9.198971
6441.185,9.146894
6446.97,9.077404
6452.756,9.001093
6458.541,8.91242
6464.327,8.783684
6470.112,8.587862
6475.897,8.353889
6481.684,8.220787
6487.469,8.227839
6493.254,8.301421
6499.04,8.392158
6504.825,8.455866
6510.61,8.51539
6516.396,8.565352
6522.182,8.602262
6527.967,8.6373
6533.753,8.666548
6539.538,8.696918
6545.324,8.715032
6551.109,8.741809
6556.895,8.760305
6562.68,8.777681
6568.466,8.807343
6574.251,8.830409
6580.037,8.858934
6585.822,8.875238
6591.607,8.883581
6597.393,8.888561
6603.179,8.890066
6608.964,8.895128
6614.75,8.891523
6620.535,8.884952
6626.32,8.882231
6632.106,8.864282
6637.892,8.84917
6643.677,8.8356
6649.463,8.815638
6655.248,8.792968
6661.034,8.773388
6666.819,8.747971
6672.604,8.719774
6678.39,8.690039
6684.176,8.658175
6689.961,8.617072
6695.747,8.584432
6701.532,8.545424
6707.317,8.50267
6713.103,8.455972
6718.889,8.413544
6724.674,8.36235
6730.459,8.325438
6736.245,8.281196
6742.03,8.242759
6747.816,8.198664
6753.602,8.159908
6759.387,8.114718
6765.173,8.07088
6770.958,8.020386
6776.743,7.949792
6782.529,7.883785
6788.314,7.805533
6794.1,7.7222
6799.886,7.637885
6805.671,7.552864
6811.457,7.474743
6817.242,7.392373
6823.027,7.308218
6828.813,7.207713
6834.599,7.132346
6840.384,7.08084
6846.169,7.046804
6851.955,7.004757
6857.74,6.96064
6863.526,6.916348
6869.312,6.874762
6875.097,6.820415
6880.882,6.760033
6886.668,6.696531
6892.453,6.630919
6898.239,6.577497
6904.024,6.5291
6909.81,6.482576
6915.596,6.442575
6921.381,6.386621
6927.166,6.316449
6932.952,6.237138
6938.737,6.156725
6944.523,6.065654
6950.309,6.009891
6956.094,5.995904
6961.879,5.98711
6967.665,5.990753
6973.45,5.993505
6979.236,5.989051
6985.021,5.980082
6990.807,5.95503
6996.592,5.9193
7002.378,5.885425
7008.163,5.837029
7013.949,5.796954
7019.734,5.752331
7025.52,5.732749
7031.305,5.726385
7037.091,5.706149
7042.876,5.667957
7048.662,5.58585
7054.447,5.47398
7060.232,5.389
7066.019,5.394676
7071.804,5.540646
7077.589,5.70083
7083.375,5.849998
7089.16,5.939279
7094.946,6.008775
7100.731,6.085936
7106.517,6.18889
7112.302,6.28456
7118.088,6.387329
7123.873,6.457328
7129.659,6.481997
7135.444,6.451305
7141.229,6.3911
7147.015,6.287391
7152.801,6.131593
7158.586,5.852905
7164.372,5.484989
7170.157,5.203347
7175.942,5.213238
7181.729,5.430088
7187.514,5.681004
7193.299,5.923837
7199.085,6.143533
7204.87,6.390454
7210.655,6.589334
7216.441,6.780065
7222.227,6.976992
7228.012,7.187613
7233.798,7.381399
7239.583,7.563584
7245.369,7.732644
7251.154,7.913493
7256.939,8.071836
7262.725,8.250262
7268.511,8.418007
7274.296,8.585131
7280.082,8.735817
7285.867,8.895885
7291.652,9.046177
7297.438,9.189837
7303.224,9.33687
7309.009,9.493381
7314.794,9.631601
7320.58,9.755929
7326.365,9.876658
7332.151,9.948677
7337.937,10.03072
7343.722,10.10014
7349.508,10.15018
7355.293,10.22415
7361.079,10.28475
7366.864,10.35695
7372.649,10.41487
7378.435,10.47525
7384.221,10.52043
7390.006,10.56996
7395.792,10.60867
7401.577,10.64143
7407.362,10.66378
7413.148,10.69501
7418.934,10.71594
7424.719,10.73185
7430.504,10.74213
7436.29,10.75692
7442.075,10.76177
7447.861,10.78438
7453.646,10.79304
7459.432,10.80616
7465.218,10.8114
7471.003,10.82118
7476.788,10.83533
7482.574,10.82593
7488.359,10.82101
7494.145,10.83287
7499.931,10.83532
7505.716,10.82214
7511.501,10.81437
7517.287,10.81743
7523.072,10.81434
7528.858,10.81423
7534.644,10.80309
7540.429,10.79891
7546.214,10.78693
7552.0,10.7819
7557.785,10.77317
7563.571,10.75939
7569.356,10.75918
7575.142,10.74238
7580.927,10.74407
7586.713,10.71947
7592.498,10.70903
7598.284,10.69145
7604.069,10.67634
7609.854,10.66415
7615.641,10.6381
7621.426,10.62295
7627.211,10.61199
7632.997,10.59001
7638.782,10.55755
7644.568,10.53356
7650.354,10.51724
7656.139,10.50341
7661.924,10.48168
7667.71,10.47035
7673.495,10.44413
7679.281,10.43524
7685.066,10.41646
7690.852,10.4164
7696.637,10.40399
7702.423,10.39342
7708.208,10.37744
7713.994,10.36222
7719.779,10.3509
7725.564,10.33335
7731.35,10.31512
7737.136,10.30119
7742.921,10.29247
7748.707,10.28233
7754.492,10.26947
7760.277,10.24506
7766.063,10.21803
7771.849,10.20381
7777.634,10.19801
7783.42,10.18341
7789.205,10.17142
7794.991,10.16742
7800.776,10.15201
7806.562,10.12574
7812.347,10.11154
7818.133,10.08808
7823.918,10.06381
7829.704,10.04651
7835.489,10.04086
7841.274,10.00171
7847.06,9.989085
7852.846,9.959445
7858.631,9.932946
7864.417,9.905622
7870.202,9.868096
7875.987,9.84158
7881.773,9.800092
7887.559,9.76058
7893.344,9.723018
7899.13,9.664291
7904.915,9.647698
7910.7,9.603079
7916.486,9.551332
7922.271,9.507921
7928.057,9.466464
7933.843,9.409443
7939.628,9.364894
7945.414,9.322393
7951.199,9.251842
7956.984,9.199379
7962.77,9.123591
7968.556,9.065797
7974.341,9.004972
7980.126,8.936358
7985.912,8.875503
7991.697,8.798805
7997.483,8.738983
8003.269,8.653122
8009.054,8.57584
8014.839,8.498986
8020.625,8.419636
8026.41,8.329935
8032.196,8.240619
8037.981,8.146306
8043.767,8.05241
8049.553,7.954741
8055.338,7.857553
8061.124,7.757737
8066.909,7.661187
8072.694,7.543849
8078.48,7.449611
8084.266,7.330071
8090.051,7.213732
8095.836,7.094307
8101.622,6.987267
8107.407,6.872054
8113.192,6.740343
8118.979,6.600033
8124.764,6.478111
8130.55,6.342213
8136.335,6.204017
8142.12,6.077846
8147.906,5.946496
8153.691,5.813062
8159.477,5.666667
8165.263,5.529987
8171.048,5.409523
8176.833,5.280193
8182.619,5.16933
8188.404,5.062412
8194.189,4.974942
8199.976,4.907225
8205.761,4.836368
8211.546,4.805095
8217.332,4.776579
8223.117,4.763455
8228.902,4.775838
8234.688,4.785639
8240.474,4.792563
8246.259,4.808305
8252.045,4.811042
8257.83,4.851141
8263.616,4.881462
8269.401,4.92916
8275.187,4.983675
8280.973,5.057834
8286.758,5.13199
8292.543,5.203052
8298.329,5.303246
8304.114,5.377339
8309.899,5.466465
8315.686,5.561019
8321.471,5.641218
8327.256,5.731315
8333.042,5.818527
8338.827,5.922224
8344.612,6.036027
8350.398,6.126915
8356.184,6.245667
8361.969,6.356352
8367.755,6.467756
8373.54,6.563832
8379.325,6.668295
8385.111,6.758408
8390.896,6.82898
8396.683,6.884925
8402.468,6.912707
8408.253,6.935949
8414.039,6.953949
8419.824,6.951742
8425.609,6.993874
8431.396,7.053504
8437.181,7.15247
8442.966,7.252636
8448.752,7.420073
8454.537,7.520005
8460.322,7.635547
8466.108,7.731295
8471.894,7.821901
8477.679,7.933114
8483.465,8.060927
8489.25,8.160989
8495.035,8.253804
8500.821,8.316298
8506.606,8.35926
8512.392,8.406646
8518.178,8.461035
8523.963,8.510877
8529.748,8.549699
8535.534,8.573049
8541.319,8.539405
8547.105,8.473385
8552.891,8.383501
8558.676,8.26483
8564.462,8.201385
8570.247,8.284342
8576.032,8.397095
8581.818,8.544245
8587.604,8.711806
8593.389,8.903227
8599.175,9.077853
8604.96,9.261376
8610.745,9.440856
8616.531,9.599653
8622.316,9.757724
8628.102,9.890932
8633.888,10.02005
8639.673,10.13116
8645.458,10.24546
8651.244,10.33587
8657.029,10.43028
8662.814,10.48663
8668.601,10.55524
8674.386,10.6206
8680.172,10.69719
8685.957,10.74943
8691.742,10.83047
8697.528,10.89257
8703.313,10.99113
8709.099,11.06535
8714.885,11.14841
8720.67,11.2315
8726.455,11.31101
8732.241,11.38594
8738.026,11.45758
8743.812,11.53082
8749.598,11.60484
8755.383,11.6538
8761.168,11.72739
8766.954,11.77827
8772.739,11.82512
8778.524,11.85827
8784.311,11.91085
8790.096,11.93703
8795.881,11.99235
8801.667,12.00709
8807.452,12.04154
8813.237,12.05513
8819.023,12.08774
8824.809,12.09479
8830.595,12.11247
8836.38,12.12122
8842.165,12.14435
8847.951,12.15892
8853.736,12.15475
8859.521,12.16097
8865.308,12.17764
8871.093,12.18951
8876.878,12.18501
8882.664,12.19489
8888.449,12.19062
8894.234,12.20349
8900.021,12.20234
8905.806,12.19054
8911.591,12.18562
8917.377,12.19237
8923.162,12.18463
8928.947,12.19385
8934.733,12.19103
8940.519,12.18838
8946.304,12.2048
8952.09,12.18028
8957.875,12.19889
8963.661,12.1957
8969.446,12.20002
8975.231,12.19455
8981.018,12.21291
8986.803,12.22301
8992.588,12.19485
8998.374,12.20977
9004.159,12.23936
9009.944,12.237
9015.73,12.23467
9021.516,12.24726
9027.301,12.26282
9033.087,12.27318
9038.872,12.24375
9044.657,12.27355
9050.443,12.27591
9056.229,12.28109
9062.014,12.28316
9067.8,12.29402
9073.585,12.28352
9079.37,12.29889
9085.156,12.29358
9090.941,12.29386
9096.727,12.30947
9102.513,12.3128
9108.298,12.30346
9114.084,12.28304
9119.869,12.29628
9125.654,12.29399
9131.44,12.29797
9137.226,12.27898
9143.011,12.28953
9148.797,12.29938
9154.582,12.28984
9160.367,12.27855
9166.153,12.27772
9171.938,12.25231
9177.724,12.26424
9183.51,12.26171
9189.295,12.23771
9195.08,12.24185
9200.866,12.23651
9206.651,12.23221
9212.437,12.22724
9218.223,12.20726
9224.008,12.21441
9229.793,12.21073
9235.579,12.20202
9241.364,12.20837
9247.15,12.20017
9252.936,12.18936
9258.721,12.19373
9264.507,12.18912
9270.292,12.18101
9276.077,12.17122
9281.863,12.17461
9287.648,12.15253
9293.434,12.1521
9299.22,12.17423
9305.005,12.14533
9310.79,12.1495
9316.576,12.16432
9322.361,12.165
9328.146,12.16401
9333.933,12.15445
9339.718,12.1582
9345.503,12.17034
9351.289,12.10875
9357.074,12.14959
9362.859,12.13385
9368.646,12.12381
9374.431,12.1254
9380.217,12.10734
9386.002,12.08628
9391.787,12.07289
9397.573,12.07251
9403.358,12.07749
9409.144,12.04584
9414.93,12.02338
9420.715,12.01276
9426.5,12.00543
9432.286,12.00331
9438.071,11.97797
9443.856,11.96919
9449.643,11.93405
9455.428,11.93093
9461.213,11.90375
9466.999,11.89669
9472.784,11.88117
9478.569,11.8524
9484.355,11.8702
9490.141,11.8589
9495.926,11.84736
9501.712,11.8208
9507.497,11.81253
9513.282,11.81717
9519.068,11.83164
9524.854,11.80936
9530.64,11.78925
9536.425,11.78472
9542.21,11.78714
9547.996,11.75659
9553.781,11.74191
9559.566,11.72607
9565.353,11.72625
9571.138,11.71604
9576.923,11.69842
9582.709,11.66927
9588.494,11.67442
9594.279,11.65792
9600.065,11.65792
9605.851,11.67896
9611.636,11.66707
9617.422,11.712
9623.207,11.72055
9628.992,11.74297
9634.778,11.7554
9640.563,11.76812
9646.349,11.80615
9652.135,11.84296
9657.92,11.85735
9663.706,11.89203
9669.491,11.88838
9675.276,11.94596
9681.063,11.95289
9686.848,11.96345
9692.633,12.00107
9698.419,12.00518
9704.204,12.03349
9709.989,12.07846
9715.775,12.09266
9721.561,12.11636
9727.346,12.13737
9733.132,12.17454
9738.917,12.20228
9744.702,12.18377
9750.488,12.19386
9756.273,12.22851
9762.059,12.26574
9767.845,12.27253
9773.63,12.24538
9779.415,12.26655
9785.201,12.24576
9790.986,12.2626
9796.771,12.22544
9802.558,12.26682
9808.343,12.27263
9814.129,12.27937
9819.914,12.27118
9825.699,12.25526
9831.485,12.29169
9837.271,12.27927
9843.056,12.32366
9848.842,12.34558
9854.627,12.34377
9860.412,12.36577
9866.198,12.40136
9871.983,12.41897
9877.769,12.45687
9883.555,12.48374
9889.34,12.48685
9895.125,12.53061
9900.911,12.56635
9906.696,12.56781
9912.481,12.58767
9918.268,12.55986
9924.053,12.5858
9929.838,12.61555
9935.624,12.62947
9941.409,12.63501
9947.195,12.67769
9952.98,12.6836
9958.766,12.68206
9964.552,12.72361
9970.337,12.71515
9976.122,12.74014
9981.908,12.74562
9987.693,12.78601
9993.479,12.77598
9999.265,12.79231
10005.05,12.79292
10010.83,12.76793
10016.62,12.82829
10022.41,12.8271
10028.19,12.8296
10033.98,12.85249
10039.76,12.86767
10045.55,12.88653
10051.33,12.89476
10057.12,12.92799
10062.9,12.89157
10068.69,12.88045
10074.48,12.92384
10080.26,12.91182
10086.05,12.93638
10091.83,12.94831
10097.62,12.94842
10103.4,12.94976
10109.19,12.93063
10114.97,12.97338
10120.76,12.94233
10126.54,12.96337
10132.33,12.96959
10138.12,12.93443
10143.9,12.96975
10149.69,12.9566
10155.47,12.96771
10161.26,12.96574
10167.04,12.96513
10172.83,12.99756
10178.61,12.97161
10184.4,12.99974
10190.19,13.01041
10195.97,12.9931
10201.76,12.97876
10207.54,12.99206
10213.33,13.0135
10219.11,13.00681
10224.9,12.97122
10230.68,12.94493
10236.47,13.00896
10242.25,12.97489
10248.04,12.9777
10253.83,12.97005
10259.61,12.93404
10265.4,12.99579
10271.18,12.95244
10276.97,12.9674
10282.75,12.96601
10288.54,12.96864
10294.32,12.95337
10300.11,12.92036
10305.9,12.89193
10311.68,12.88191
10317.47,12.88471
10323.25,12.89256
10329.04,12.89618
10334.82,12.87097
10340.61,12.90158
10346.39,12.89871
10352.18,12.90729
10357.96,12.94765
10363.75,12.90519
10369.54,12.91063
10375.32,12.88251
10381.11,12.89573
10386.89,12.92783
10392.68,12.88722
10398.46,12.87107
10404.25,12.9117
10410.03,12.89845
10415.82,12.89709
10421.61,12.92348
10427.39,12.89554
10433.18,12.89377
10438.96,12.82938
10444.75,12.8715
10450.53,12.80297
10456.32,12.80823
10462.1,12.82918
10467.89,12.7654
10473.67,12.7483
10479.46,12.78795
10485.25,12.71722
10491.03,12.73355
10496.82,12.71674
10502.6,12.68164
10508.39,12.66138
10514.17,12.63342
10519.96,12.64488
10525.74,12.55653
10531.53,12.54265
10537.32,12.52443
10543.1,12.49768
10548.89,12.43509
10554.67,12.36622
10560.46,12.40748
10566.24,12.33659
10572.03,12.28641
10577.81,12.205
10583.6,12.14925
10589.38,12.07737
10595.17,12.01556
10600.96,11.95884
10606.74,11.90021
10612.53,11.75624
10618.31,11.7294
10624.1,11.71478
10629.88,11.66337
10635.67,11.55799
10641.45,11.4751
10647.24,11.31705
10653.03,11.30191
10658.81,11.24066
10664.6,11.11836
10670.38,11.06943
10676.17,10.98304
10681.95,10.91255
10687.74,10.85769
10693.52,10.78122
10699.31,10.75114
10705.09,10.70045
10710.88,10.7124
10716.67,10.70613
10722.45,10.7145
10728.24,10.66733
10734.02,10.66733
10739.81,10.68519
10745.59,10.7268
10751.38,10.70744
10757.16,10.73665
10762.95,10.76766
10768.74,10.80517
10774.52,10.8769
10780.31,10.94849
10786.09,10.9597
10791.88,10.99038
10797.66,11.09766
10803.45,11.22363
10809.23,11.17651
10815.02,11.25314
10820.8,11.30157
10826.59,11.35004
10832.38,11.44572
10838.16,11.50821
10843.95,11.60141
10849.73,11.62959
10855.52,11.60231
10861.3,11.73382
10867.09,11.84038
10872.87,11.82126
10878.66,11.88616
10884.45,11.88916
10890.23,12.0385
10896.02,12.03673
10901.8,12.11164
10907.59,12.11799
10913.37,12.24431
10919.16,12.27762
10924.94,12.29852
10930.73,12.34602
10936.51,12.37856
10942.3,12.4057
10948.09,12.48707
10953.87,12.42713
10959.66,12.50309
10965.44,12.59358
10971.23,12.64793
10977.01,12.67175
10982.8,12.667
10988.58,12.73275
10994.37,12.77976
11000.16,12.73322
11005.94,12.847
11011.73,12.80532
11017.51,12.8434
11023.3,12.92114
11029.08,12.84785
11034.87,12.94022
11040.65,13.01477
11046.44,12.94833
11052.22,12.9415
11058.01,12.91599
11063.79,12.94184
11069.58,13.00315
11075.37,13.05479
11081.15,13.0274
11086.94,12.96842
11092.72,13.05387
11098.51,13.05415
11104.29,13.04392
11110.08,13.0467
11115.87,13.06267
11121.65,13.09792
11127.44,13.06997
11133.22,13.08911
11139.01,13.11368
11144.79,13.11609
11150.58,13.08766
11156.36,13.13631
11162.15,13.19863
11167.93,13.18866
11173.72,13.16489
11179.5,13.1395
11185.29,13.13455
11191.08,13.17894
11196.86,13.20931
11202.65,13.22997
11208.43,13.34618
11214.22,13.31422
11220.0,13.34367
11225.79,13.32906
11231.58,13.26305
11237.36,13.29388
11243.15,13.41862
11248.93,13.41115
11254.72,13.36952
11260.5,13.38057
11266.29,13.46336
11272.07,13.44784
11277.86,13.44169
11283.64,13.43052
11289.43,13.46777
11295.21,13.43005
11301.0,13.53264
11306.79,13.47163
11312.57,13.51363
11318.36,13.43837
11324.14,13.47074
11329.93,13.53941
11335.71,13.54098
11341.5,13.51714
11347.28,13.43705
11353.07,13.51822
11358.86,13.53204
11364.64,13.61001
11370.43,13.5707
11376.21,13.57064
11382.0,13.57692
11387.78,13.53371
11393.57,13.50076
11399.35,13.63166
11405.14,13.63386
11410.92,13.56526
11416.71,13.60773
11422.5,13.66321
11428.28,13.68456
11434.07,13.69051
11439.85,13.58628
11445.64,13.63597
11451.42,13.66339
11457.21,13.60194
11462.99,13.71673
11468.78,13.6388
11474.57,13.66156
11480.35,13.61029
11486.14,13.57501
11491.92,13.70323
11497.71,13.70946
11503.49,13.68349
11509.28,13.62293
11515.06,13.70942
11520.85,13.65993
11526.63,13.76705
11532.42,13.74733
11538.21,13.65224
11543.99,13.68226
11549.78,13.68071
11555.56,13.64233
11561.35,13.79289
11567.13,13.67222
11572.92,13.63003
11578.7,13.80402
11584.49,13.78987
11590.28,13.77395
11596.06,13.76702
11601.85,13.71931
11607.63,13.86806
11613.42,13.71773
11619.2,13.77097
11624.99,13.83604
11630.77,13.86831
11636.56,13.89842
11642.34,13.78183
11648.13,13.63023
11653.92,13.81858
11659.7,13.78689
11665.49,13.70712
11671.27,13.73146
11677.06,13.75073
11682.84,13.86469
11688.63,13.75553
11694.41,13.75629
11700.2,13.77022
11705.99,13.79893
11711.77,13.78226
11717.56,13.72501
11723.34,13.75531
11729.13,13.84713
11734.91,13.66257
11740.7,13.74434
11746.48,13.80936
11752.27,13.72206
11758.05,13.68181
11763.84,13.64602
11769.63,13.65283
11775.41,13.73276
11781.2,13.76308
11786.98,13.69256
11792.77,13.71324
11798.55,13.77787
11804.34,13.64995
11810.12,13.90407
11815.91,13.66574
11821.7,13.68754
11827.48,13.72519
11833.27,13.73611
11839.05,13.64753
11844.84,13.65493
11850.62,13.92421
11856.41,13.54312
11862.19,13.6974
11867.98,13.76406
11873.76,13.76623
11879.55,13.6586
11885.34,13.72061
11891.12,13.57314
11896.91,13.77509
11902.69,13.68007
11908.48,13.81727
11914.26,13.8967
11920.05,13.75747
11925.83,13.69398
11931.62,13.85689
11937.41,13.87596
11943.19,13.69789
11948.98,13.72642
11954.76,13.7073
11960.55,13.83184
11966.33,13.81345
11972.12,13.78814
11977.9,13.75844
11983.69,13.70375
11989.47,13.60348
11995.26,13.67938
11999.12,13.81741