File: Data/NIR/N1476LDPE_3.csv
Wavenumber,Intensity
3999.706,3.693243
4005.491,3.700971
4011.277,3.700062
4017.062,3.703129
4022.848,3.695905
4028.633,3.704663
4034.419,3.707721
4040.204,3.705394
4045.99,3.709744
4051.775,3.714947
4057.561,3.711934
4063.346,3.716417
4069.132,3.718329
4074.917,3.723747
4080.703,3.720289
4086.488,3.724463
4092.274,3.723101
4098.059,3.719868
4103.845,3.725797
4109.63,3.726112
4115.416,3.7257
4121.201,3.726583
4126.987,3.728622
4132.772,3.727578
4138.558,3.734492
4144.343,3.735895
4150.129,3.734167
4155.914,3.736348
4161.7,3.738827
4167.485,3.741317
4173.271,3.747305
4179.056,3.750182
4184.842,3.754475
4190.627,3.763802
4196.413,3.771321
4202.198,3.781028
4207.983,3.788184
4213.769,3.800447
4219.555,3.807935
4225.34,3.813273
4231.125,3.825336
4236.911,3.825117
4242.697,3.825725
4248.482,3.815938
4254.268,3.818258
4260.053,3.832115
4265.838,3.845987
4271.624,3.850751
4277.41,3.859413
4283.195,3.862856
4288.98,3.865526
4294.766,3.871411
4300.552,3.871403
4306.337,3.864804
4312.123,3.865304
4317.908,3.845251
4323.693,3.837407
4329.479,3.841884
4335.265,3.855261
4341.05,3.856646
4346.835,3.869171
4352.621,3.872173
4358.407,3.879025
4364.192,3.88856
4369.978,3.888272
4375.763,3.894764
4381.548,3.901672
4387.334,3.904531
4393.12,3.920735
4398.905,3.932158
4404.69,3.959749
4410.476,3.994225
4416.262,4.03853
4422.047,4.084527
4427.833,4.137346
4433.618,4.190352
4439.403,4.242483
4445.189,4.304038
4450.975,4.378814
4456.76,4.452873
4462.545,4.524008
4468.331,4.597954
4474.116,4.660462
4479.902,4.731359
4485.688,4.792929
4491.473,4.862131
4497.258,4.931673
4503.044,5.004383
4508.83,5.079029
4514.615,5.151484
4520.4,5.222496
4526.186,5.296597
4531.971,5.366827
4537.757,5.445497
4543.542,5.521947
4549.328,5.599559
4555.113,5.679904
4560.899,5.763919
4566.685,5.840181
4572.47,5.900533
4578.255,5.958222
4584.041,6.004162
4589.826,6.049617
4595.612,6.085378
4601.397,6.122798
4607.183,6.150457
4612.968,6.175076
4618.754,6.208454
4624.539,6.241396
4630.325,6.266363
4636.11,6.279561
4641.896,6.291173
4647.681,6.287719
4653.467,6.266402
4659.252,6.213197
4665.038,6.146963
4670.823,6.165897
4676.609,6.255159
4682.394,6.329453
4688.18,6.372027
4693.965,6.389683
4699.751,6.394895
4705.536,6.395491
4711.322,6.381573
4717.107,6.356946
4722.893,6.315798
4728.678,6.270774
4734.464,6.243958
4740.249,6.227988
4746.035,6.199522
4751.82,6.177183
4757.605,6.151937
4763.391,6.116066
4769.177,6.06861
4774.962,6.006124
4780.748,5.972153
4786.533,5.957272
4792.319,5.939726
4798.104,5.922181
4803.89,5.887116
4809.675,5.845866
4815.46,5.790027
4821.246,5.739192
4827.032,5.698267
4832.817,5.657701
4838.603,5.611779
4844.388,5.549252
4850.174,5.487
4855.959,5.429459
4861.745,5.383833
4867.53,5.353922
4873.315,5.357984
4879.101,5.370875
4884.887,5.385943
4890.672,5.409604
4896.458,5.424965
4902.243,5.440761
4908.028,5.449833
4913.814,5.454471
4919.6,5.454036
4925.385,5.446532
4931.17,5.44355
4936.956,5.438154
4942.742,5.414386
4948.527,5.376164
4954.313,5.296705
4960.098,5.179409
4965.883,5.143113
4971.669,5.186989
4977.455,5.210361
4983.24,5.249905
4989.025,5.297096
4994.811,5.351252
5000.597,5.416598
5006.382,5.469408
5012.167,5.48626
5017.953,5.498084
5023.738,5.512964
5029.524,5.540959
5035.31,5.556715
5041.095,5.5611
5046.88,5.562034
5052.666,5.546222
5058.451,5.518615
5064.237,5.496664
5070.022,5.50291
5075.808,5.500069
5081.593,5.491962
5087.379,5.480808
5093.165,5.469958
5098.95,5.460841
5104.735,5.472186
5110.521,5.487436
5116.307,5.50438
5122.092,5.515039
5127.877,5.531476
5133.663,5.543408
5139.448,5.533485
5145.234,5.513059
5151.02,5.490139
5156.805,5.473888
5162.59,5.470239
5168.376,5.471002
5174.161,5.462259
5179.947,5.456489
5185.732,5.450732
5191.518,5.447916
5197.303,5.466115
5203.089,5.477199
5208.874,5.472929
5214.66,5.45761
5220.445,5.463897
5226.231,5.484344
5232.016,5.489723
5237.802,5.495849
5243.587,5.526424
5249.373,5.519113
5255.158,5.534495
5260.944,5.54757
5266.729,5.531864
5272.515,5.515226
5278.3,5.522337
5284.086,5.53144
5289.871,5.542473
5295.657,5.509248
5301.442,5.489059
5307.228,5.479248
5313.013,5.484385
5318.799,5.543543
5324.584,5.589551
5330.37,5.592793
5336.155,5.595988
5341.94,5.542693
5347.726,5.464304
5353.512,5.415903
5359.297,5.3394
5365.083,5.292346
5370.868,5.245588
5376.654,5.224782
5382.439,5.191742
5388.225,5.153032
5394.01,5.125892
5399.796,5.063522
5405.581,5.011095
5411.367,4.964732
5417.152,4.86137
5422.938,4.828786
5428.723,4.822582
5434.509,4.795707
5440.294,4.791174
5446.08,4.763037
5451.865,4.734519
5457.65,4.732713
5463.436,4.716147
5469.222,4.692181
5475.007,4.685345
5480.792,4.630558
5486.578,4.61317
5492.363,4.606243
5498.149,4.598097
5503.935,4.607474
5509.72,4.614673
5515.505,4.630931
5521.291,4.635845
5527.077,4.631345
5532.862,4.627261
5538.647,4.621944
5544.433,4.6073
5550.219,4.600967
5556.004,4.602369
5561.79,4.617889
5567.575,4.64491
5573.36,4.692294
5579.146,4.738544
5584.932,4.772386
5590.717,4.783284
5596.502,4.770133
5602.288,4.736795
5608.073,4.691929
5613.859,4.639259
5619.645,4.593797
5625.43,4.548944
5631.215,4.510228
5637.001,4.465836
5642.786,4.403265
5648.572,4.317756
5654.357,4.218872
5660.143,4.160147
5665.929,4.155304
5671.714,4.181069
5677.5,4.226871
5683.285,4.26673
5689.07,4.307193
5694.856,4.356173
5700.642,4.421981
5706.427,4.493144
5712.212,4.535673
5717.998,4.540601
5723.783,4.472477
5729.569,4.347031
5735.354,4.308036
5741.14,4.277638
5746.925,4.219447
5752.711,4.172696
5758.496,4.132096
5764.282,4.103457
5770.067,4.089107
5775.853,4.080914
5781.638,4.087752
5787.424,4.101671
5793.209,4.119665
5798.995,4.129953
5804.78,4.143968
5810.566,4.164746
5816.352,4.18792
5822.137,4.216195
5827.922,4.252234
5833.708,4.30455
5839.493,4.356925
5845.279,4.441288
5851.064,4.562378
5856.85,4.725913
5862.635,4.951465
5868.421,5.220782
5874.206,5.528121
5879.992,5.849566
5885.777,6.155117
5891.563,6.414828
5897.348,6.600053
5903.134,6.761446
5908.919,6.960114
5914.705,7.205392
5920.49,7.498411
5926.276,7.801211
5932.061,8.090372
5937.847,8.346205
5943.632,8.584818
5949.418,8.794797
5955.203,9.012592
5960.989,9.240041
5966.774,9.489491
5972.56,9.722367
5978.345,9.945728
5984.131,10.14631
5989.916,10.33088
5995.702,10.50492
6001.487,10.67031
6007.272,10.82812
6013.058,10.97945
6018.844,11.12212
6024.629,11.25754
6030.415,11.37764
6036.2,11.49368
6041.985,11.5972
6047.771,11.68909
6053.557,11.78312
6059.342,11.86585
6065.128,11.93944
6070.913,12.01346
6076.698,12.07101
6082.484,12.13617
6088.27,12.18438
6094.055,12.23442
6099.841,12.27589
6105.626,12.32619
6111.412,12.3604
6117.197,12.40064
6122.982,12.4454
6128.768,12.50147
6134.554,12.5473
6140.339,12.59803
6146.125,12.64696
6151.91,12.68894
6157.695,12.73462
6163.481,12.78466
6169.267,12.83374
6175.052,12.8789
6180.837,12.91655
6186.623,12.95459
6192.408,12.98112
6198.194,13.01464
6203.979,13.04159
6209.765,13.06848
6215.551,13.09761
6221.336,13.1242
6227.121,13.1417
6232.907,13.16839
6238.692,13.17834
6244.478,13.19258
6250.264,13.19888
6256.049,13.20784
6261.834,13.21769
6267.62,13.22682
6273.405,13.23736
6279.191,13.24626
6284.977,13.25383
6290.762,13.26137
6296.547,13.26306
6302.333,13.2773
6308.118,13.28698
6313.904,13.28566
6319.689,13.27772
6325.475,13.27009
6331.26,13.25817
6337.046,13.23655
6342.831,13.21562
6348.617,13.19284
6354.402,13.15941
6360.188,13.12601
6365.974,13.08415
6371.759,13.02415
6377.544,12.97541
6383.33,12.95073
6389.115,12.9283
6394.901,12.9115
6400.687,12.86457
6406.472,12.79924
6412.257,12.71509
6418.043,12.65669
6423.828,12.61544
6429.614,12.58971
6435.399,12.54563
6441.185,12.4734
6446.97,12.37106
6452.756,12.25777
6458.541,12.12565
6464.327,11.92714
6470.112,11.63815
6475.897,11.29688
6481.684,11.09858
6487.469,11.10931
6493.254,11.21846
6499.04,11.34152
6504.825,11.44983
6510.61,11.54451
6516.396,11.60975
6522.182,11.66235
6527.967,11.71929
6533.753,11.75937
6539.538,11.79673
6545.324,11.83173
6551.109,11.86336
6556.895,11.89268
6562.68,11.922
6568.466,11.95968
6574.251,12.00534
6580.037,12.04169
6585.822,12.0528
6591.607,12.07656
6597.393,12.07704
6603.179,12.08236
6608.964,12.08125
6614.75,12.08219
6620.535,12.07638
6626.32,12.05784
6632.106,12.04225
6637.892,12.02434
6643.677,11.9975
6649.463,11.97159
6655.248,11.93723
6661.034,11.90854
6666.819,11.85232
6672.604,11.83113
6678.39,11.7787
6684.176,11.7393
6689.961,11.68085
6695.747,11.62994
6701.532,11.56982
6707.317,11.50626
6713.103,11.43545
6718.889,11.36434
6724.674,11.29815
6730.459,11.23677
6736.245,11.1742
6742.03,11.11389
6747.816,11.0515
6753.602,10.98671
6759.387,10.92455
6765.173,10.8643
6770.958,10.78412
6776.743,10.68947
6782.529,10.58202
6788.314,10.47195
6794.1,10.344
6799.886,10.21203
6805.671,10.07604
6811.457,9.951929
6817.242,9.827897
6823.027,9.69949
6828.813,9.555876
6834.599,9.444086
6840.384,9.359684
6846.169,9.303431
6851.955,9.242604
6857.74,9.170922
6863.526,9.11274
6869.312,9.029331
6875.097,8.962605
6880.882,8.872164
6886.668,8.769636
6892.453,8.670707
6898.239,8.581259
6904.024,8.510639
6909.81,8.455865
6915.596,8.382626
6921.381,8.294451
6927.166,8.186098
6932.952,8.054257
6938.737,7.915631
6944.523,7.786539
6950.309,7.706189
6956.094,7.673495
6961.879,7.676516
6967.665,7.672021
6973.45,7.681859
6979.236,7.675274
6985.021,7.652319
6990.807,7.620428
6996.592,7.571431
7002.378,7.509111
7008.163,7.445705
7013.949,7.372079
7019.734,7.308858
7025.52,7.270371
7031.305,7.264125
7037.091,7.230001
7042.876,7.169287
7048.662,7.037549
7054.447,6.880045
7060.232,6.740378
7066.019,6.754214
7071.804,6.958088
7077.589,7.230341
7083.375,7.453196
7089.16,7.597965
7094.946,7.720858
7100.731,7.822743
7106.517,7.993479
7112.302,8.147118
7118.088,8.308262
7123.873,8.408754
7129.659,8.451425
7135.444,8.425274
7141.229,8.316266
7147.015,8.149281
7152.801,7.890721
7158.586,7.489911
7164.372,6.889769
7170.157,6.449509
7175.942,6.452838
7181.729,6.806221
7187.514,7.179484
7193.299,7.570364
7199.085,7.927603
7204.87,8.297041
7210.655,8.603969
7216.441,8.897102
7222.227,9.190552
7228.012,9.516108
7233.798,9.811465
7239.583,10.09379
7245.369,10.3313
7251.154,10.6112
7256.939,10.8415
7262.725,11.10119
7268.511,11.34662
7274.296,11.60211
7280.082,11.82913
7285.867,12.07051
7291.652,12.2941
7297.438,12.50812
7303.224,12.70432
7309.009,12.9407
7314.794,13.12975
7320.58,13.31767
7326.365,13.51918
7332.151,13.59692
7337.937,13.74635
7343.722,13.82817
7349.508,13.89146
7355.293,14.00934
7361.079,14.09105
7366.864,14.20447
7372.649,14.28326
7378.435,14.37746
7384.221,14.45015
7390.006,14.51577
7395.792,14.56108
7401.577,14.60552
7407.362,14.64227
7413.148,14.68369
7418.934,14.71257
7424.719,14.73254
7430.504,14.75198
7436.29,14.77037
7442.075,14.78598
7447.861,14.81054
7453.646,14.82497
7459.432,14.84042
7465.218,14.85409
7471.003,14.86728
7476.788,14.86509
7482.574,14.87659
7488.359,14.8751
7494.145,14.87017
7499.931,14.8681
7505.716,14.86308
7511.501,14.86161
7517.287,14.85567
7523.072,14.85184
7528.858,14.84639
7534.644,14.84003
7540.429,14.81708
7546.214,14.8112
7552.0,14.79356
7557.785,14.77763
7563.571,14.77285
7569.356,14.74923
7575.142,14.73263
7580.927,14.71472
7586.713,14.70096
7592.498,14.68899
7598.284,14.6559
7604.069,14.64585
7609.854,14.61256
7615.641,14.59131
7621.426,14.5649
7627.211,14.52856
7632.997,14.49994
7638.782,14.46233
7644.568,14.43384
7650.354,14.4105
7656.139,14.37993
7661.924,14.35414
7667.71,14.33326
7673.495,14.28884
7679.281,14.27905
7685.066,14.26014
7690.852,14.25266
7696.637,14.23033
7702.423,14.20215
7708.208,14.18741
7713.994,14.16804
7719.779,14.15107
7725.564,14.12619
7731.35,14.09379
7737.136,14.08911
7742.921,14.07376
7748.707,14.04707
7754.492,14.02531
7760.277,13.99863
7766.063,13.96163
7771.849,13.93643
7777.634,13.92278
7783.42,13.90615
7789.205,13.88914
7794.991,13.87809
7800.776,13.85211
7806.562,13.82016
7812.347,13.79865
7818.133,13.7646
7823.918,13.7366
7829.704,13.70818
7835.489,13.67649
7841.274,13.647
7847.06,13.60933
7852.846,13.57735
7858.631,13.51674
7864.417,13.47301
7870.202,13.44006
7875.987,13.38187
7881.773,13.32544
7887.559,13.27425
7893.344,13.21728
7899.13,13.17306
7904.915,13.10464
7910.7,13.03515
7916.486,12.97782
7922.271,12.90566
7928.057,12.81878
7933.843,12.75259
7939.628,12.68739
7945.414,12.59738
7951.199,12.52328
7956.984,12.43548
7962.77,12.33475
7968.556,12.25572
7974.341,12.15112
7980.126,12.05214
7985.912,11.96018
7991.697,11.85443
7997.483,11.75376
8003.269,11.62587
8009.054,11.52222
8014.839,11.40807
8020.625,11.27299
8026.41,11.15209
8032.196,11.01881
8037.981,10.88764
8043.767,10.74823
8049.553,10.60027
8055.338,10.44762
8061.124,10.28874
8066.909,10.13789
8072.694,9.984187
8078.48,9.819529
8084.266,9.655992
8090.051,9.47789
8095.836,9.301433
8101.622,9.132783
8107.407,8.942398
8113.192,8.752106
8118.979,8.54365
8124.764,8.360744
8130.55,8.142321
8136.335,7.936573
8142.12,7.723761
8147.906,7.51769
8153.691,7.305674
8159.477,7.109344
8165.263,6.887952
8171.048,6.696889
8176.833,6.495183
8182.619,6.32265
8188.404,6.167886
8194.189,6.036868
8199.976,5.929278
8205.761,5.826686
8211.546,5.763312
8217.332,5.721128
8223.117,5.712594
8228.902,5.715735
8234.688,5.728616
8240.474,5.739996
8246.259,5.747977
8252.045,5.797641
8257.83,5.827469
8263.616,5.890247
8269.401,5.948895
8275.187,6.044366
8280.973,6.137874
8286.758,6.252424
8292.543,6.38632
8298.329,6.528748
8304.114,6.642166
8309.899,6.795233
8315.686,6.931378
8321.471,7.047933
8327.256,7.198016
8333.042,7.331686
8338.827,7.480517
8344.612,7.642352
8350.398,7.823852
8356.184,7.97218
8361.969,8.151777
8367.755,8.314482
8373.54,8.467601
8379.325,8.620688
8385.111,8.765445
8390.896,8.885345
8396.683,8.971127
8402.468,9.016921
8408.253,9.051642
8414.039,9.063419
8419.824,9.080933
8425.609,9.116116
8431.396,9.217685
8437.181,9.370268
8442.966,9.534473
8448.752,9.736135
8454.537,9.940705
8460.322,10.10112
8466.108,10.2517
8471.894,10.38363
8477.679,10.54695
8483.465,10.71267
8489.25,10.88374
8495.035,11.0189
8500.821,11.12236
8506.606,11.20648
8512.392,11.25839
8518.178,11.32124
8523.963,11.40759
8529.748,11.46526
8535.534,11.47806
8541.319,11.43346
8547.105,11.34185
8552.891,11.19518
8558.676,11.02978
8564.462,10.95653
8570.247,11.04718
8576.032,11.24721
8581.818,11.4741
8587.604,11.69932
8593.389,11.98262
8599.175,12.25399
8604.96,12.50223
8610.745,12.77301
8616.531,13.01131
8622.316,13.24476
8628.102,13.43608
8633.888,13.61215
8639.673,13.78652
8645.458,13.93561
8651.244,14.07734
8657.029,14.20831
8662.814,14.31261
8668.601,14.41853
8674.386,14.52797
8680.172,14.61329
8685.957,14.69569
8691.742,14.80412
8697.528,14.92286
8703.313,15.041
8709.099,15.14892
8714.885,15.28415
8720.67,15.37875
8726.455,15.5054
8732.241,15.62915
8738.026,15.72631
8743.812,15.84044
8749.598,15.94013
8755.383,16.02533
8761.168,16.11643
8766.954,16.17974
8772.739,16.26546
8778.524,16.32077
8784.311,16.38977
8790.096,16.43561
8795.881,16.48077
8801.667,16.52691
8807.452,16.56247
8813.237,16.60513
8819.023,16.63037
8824.809,16.6469
8830.595,16.68919
8836.38,16.69644
8842.165,16.71131
8847.951,16.74244
8853.736,16.74551
8859.521,16.75323
8865.308,16.77398
8871.093,16.79005
8876.878,16.77759
8882.664,16.79412
8888.449,16.78417
8894.234,16.79266
8900.021,16.81475
8905.806,16.80256
8911.591,16.78959
8917.377,16.7984
8923.162,16.79921
8928.947,16.7899
8934.733,16.78515
8940.519,16.77428
8946.304,16.78282
8952.09,16.80414
8957.875,16.76562
8963.661,16.77925
8969.446,16.79228
8975.231,16.78262
8981.018,16.8111
8986.803,16.80432
8992.588,16.81124
8998.374,16.81515
9004.159,16.83235
9009.944,16.83889
9015.73,16.85167
9021.516,16.84637
9027.301,16.87404
9033.087,16.88984
9038.872,16.88724
9044.657,16.89174
9050.443,16.91216
9056.229,16.92283
9062.014,16.93069
9067.8,16.91449
9073.585,16.91831
9079.37,16.92164
9085.156,16.93917
9090.941,16.94676
9096.727,16.93612
9102.513,16.95902
9108.298,16.95049
9114.084,16.93624
9119.869,16.93651
9125.654,16.94094
9131.44,16.92481
9137.226,16.9146
9143.011,16.91545
9148.797,16.92996
9154.582,16.91712
9160.367,16.90627
9166.153,16.91133
9171.938,16.88663
9177.724,16.88635
9183.51,16.8676
9189.295,16.86951
9195.08,16.84596
9200.866,16.84033
9206.651,16.83474
9212.437,16.82992
9218.223,16.81408
9224.008,16.79166
9229.793,16.80341
9235.579,16.8072
9241.364,16.79089
9247.15,16.79921
9252.936,16.77501
9258.721,16.7608
9264.507,16.77958
9270.292,16.76986
9276.077,16.7519
9281.863,16.75619
9287.648,16.72739
9293.434,16.72977
9299.22,16.72878
9305.005,16.72944
9310.79,16.71128
9316.576,16.72316
9322.361,16.7258
9328.146,16.72785
9333.933,16.72833
9339.718,16.71214
9345.503,16.73377
9351.289,16.72578
9357.074,16.68756
9362.859,16.68229
9368.646,16.67349
9374.431,16.64731
9380.217,16.63525
9386.002,16.62546
9391.787,16.60548
9397.573,16.6101
9403.358,16.58072
9409.144,16.55196
9414.93,16.56562
9420.715,16.52024
9426.5,16.48715
9432.286,16.48017
9438.071,16.46593
9443.856,16.43814
9449.643,16.4096
9455.428,16.40864
9461.213,16.3723
9466.999,16.34745
9472.784,16.30752
9478.569,16.29235
9484.355,16.30411
9490.141,16.27794
9495.926,16.25201
9501.712,16.25844
9507.497,16.26796
9513.282,16.23777
9519.068,16.22625
9524.854,16.20962
9530.64,16.18679
9536.425,16.16079
9542.21,16.15709
9547.996,16.1493
9553.781,16.12824
9559.566,16.0829
9565.353,16.07393
9571.138,16.05456
9576.923,16.03278
9582.709,16.01347
9588.494,16.03456
9594.279,16.00078
9600.065,16.01224
9605.851,16.00185
9611.636,16.04918
9617.422,16.07348
9623.207,16.09189
9628.992,16.11757
9634.778,16.16211
9640.563,16.15435
9646.349,16.23236
9652.135,16.24115
9657.92,16.30071
9663.706,16.34789
9669.491,16.37021
9675.276,16.39749
9681.063,16.40345
9686.848,16.46913
9692.633,16.48858
9698.419,16.52395
9704.204,16.55887
9709.989,16.6006
9715.775,16.66005
9721.561,16.6637
9727.346,16.70149
9733.132,16.73114
9738.917,16.78755
9744.702,16.79762
9750.488,16.80914
9756.273,16.84651
9762.059,16.86398
9767.845,16.84484
9773.63,16.88114
9779.415,16.87836
9785.201,16.89136
9790.986,16.92365
9796.771,16.92785
9802.558,16.91288
9808.343,16.88974
9814.129,16.90203
9819.914,16.9117
9825.699,16.88632
9831.485,16.94726
9837.271,16.94721
9843.056,16.9671
9848.842,16.97565
9854.627,17.05099
9860.412,17.07227
9866.198,17.11326
9871.983,17.13888
9877.769,17.21375
9883.555,17.23164
9889.34,17.27708
9895.125,17.26847
9900.911,17.30125
9906.696,17.33661
9912.481,17.33961
9918.268,17.38998
9924.053,17.41742
9929.838,17.4054
9935.624,17.45678
9941.409,17.5129
9947.195,17.50275
9952.98,17.53198
9958.766,17.55153
9964.552,17.58811
9970.337,17.6467
9976.122,17.62053
9981.908,17.62132
9987.693,17.63339
9993.479,17.67348
9999.265,17.69119
10005.05,17.69654
10010.83,17.69124
10016.62,17.72444
10022.41,17.70621
10028.19,17.73941
10033.98,17.75002
10039.76,17.79989
10045.55,17.83139
10051.33,17.85562
10057.12,17.84682
10062.9,17.85051
10068.69,17.82408
10074.48,17.89808
10080.26,17.88636
10086.05,17.89174
10091.83,17.90578
10097.62,17.89434
10103.4,17.90127
10109.19,17.93281
10114.97,17.90497
10120.76,17.91542
10126.54,17.95946
10132.33,17.97093
10138.12,17.98246
10143.9,17.95998
10149.69,17.96921
10155.47,17.96874
10161.26,17.95157
10167.04,17.98945
10172.83,18.0079
10178.61,17.93916
10184.4,17.98634
10190.19,18.00312
10195.97,18.0144
10201.76,17.98924
10207.54,18.00728
10213.33,18.00181
10219.11,17.98664
10224.9,18.01938
10230.68,17.98402
10236.47,17.97484
10242.25,17.97673
10248.04,17.95936
10253.83,17.98782
10259.61,17.99431
10265.4,17.97258
10271.18,17.94641
10276.97,17.98044
10282.75,17.8846
10288.54,17.9228
10294.32,17.9367
10300.11,17.8918
10305.9,17.90631
10311.68,17.84768
10317.47,17.85893
10323.25,17.84883
10329.04,17.80249
10334.82,17.81312
10340.61,17.8567
10346.39,17.82505
10352.18,17.84151
10357.96,17.88271
10363.75,17.91324
10369.54,17.88214
10375.32,17.84953
10381.11,17.87733
10386.89,17.87999
10392.68,17.84278
10398.46,17.85907
10404.25,17.88012
10410.03,17.84655
10415.82,17.83784
10421.61,17.8756
10427.39,17.84528
10433.18,17.79812
10438.96,17.76802
10444.75,17.81405
10450.53,17.72992
10456.32,17.77353
10462.1,17.74405
10467.89,17.71628
10473.67,17.67844
10479.46,17.63126
10485.25,17.67839
10491.03,17.6607
10496.82,17.61125
10502.6,17.57333
10508.39,17.53794
10514.17,17.50508
10519.96,17.42151
10525.74,17.4307
10531.53,17.37332
10537.32,17.33811
10543.1,17.32464
10548.89,17.23654
10554.67,17.21957
10560.46,17.07384
10566.24,17.04477
10572.03,17.01851
10577.81,16.80891
10583.6,16.84507
10589.38,16.72604
10595.17,16.71707
10600.96,16.53317
10606.74,16.46898
10612.53,16.35293
10618.31,16.2711
10624.1,16.15537
10629.88,16.01866
10635.67,15.86409
10641.45,15.80191
10647.24,15.62903
10653.03,15.54978
10658.81,15.38713
10664.6,15.26129
10670.38,15.17501
10676.17,15.05168
10681.95,14.99816
10687.74,14.85397
10693.52,14.82425
10699.31,14.69988
10705.09,14.6887
10710.88,14.67897
10716.67,14.64448
10722.45,14.63943
10728.24,14.63874
10734.02,14.65631
10739.81,14.6809
10745.59,14.63336
10751.38,14.69033
10757.16,14.78102
10762.95,14.8118
10768.74,14.87669
10774.52,14.94241
10780.31,15.0424
10786.09,15.07195
10791.88,15.12155
10797.66,15.23643
10803.45,15.34263
10809.23,15.44047
10815.02,15.52652
10820.8,15.61481
10826.59,15.67513
10832.38,15.74207
10838.16,15.89239
10843.95,16.00284
10849.73,16.02653
10855.52,16.07061
10861.3,16.25186
10867.09,16.32048
10872.87,16.40692
10878.66,16.48673
10884.45,16.55375
10890.23,16.59699
10896.02,16.65442
10901.8,16.79114
10907.59,16.82085
10913.37,16.94991
10919.16,16.98308
10924.94,17.07046
10930.73,17.11245
10936.51,17.16542
10942.3,17.16994
10948.09,17.28136
10953.87,17.34406
10959.66,17.51026
10965.44,17.53058
10971.23,17.62216
10977.01,17.60804
10982.8,17.64338
10988.58,17.64135
10994.37,17.69055
11000.16,17.7711
11005.94,17.79201
11011.73,17.85812
11017.51,17.86937
11023.3,17.95108
11029.08,17.99957
11034.87,17.98332
11040.65,18.04476
11046.44,18.02556
11052.22,18.09701
11058.01,18.08014
11063.79,18.13119
11069.58,18.18711
11075.37,18.16524
11081.15,18.18072
11086.94,18.17933
11092.72,18.14816
11098.51,18.19486
11104.29,18.25343
11110.08,18.21028
11115.87,18.21275
11121.65,18.18565
11127.44,18.26617
11133.22,18.24117
11139.01,18.2432
11144.79,18.37012
11150.58,18.27436
11156.36,18.43081
11162.15,18.38301
11167.93,18.38386
11173.72,18.45289
11179.5,18.46176
11185.29,18.47182
11191.08,18.41769
11196.86,18.56551
11202.65,18.51267
11208.43,18.67144
11214.22,18.67149
11220.0,18.65576
11225.79,18.67162
11231.58,18.6573
11237.36,18.74226
11243.15,18.6429
11248.93,18.78638
11254.72,18.72205
11260.5,18.83808
11266.29,18.86547
11272.07,18.81171
11277.86,18.80599
11283.64,18.92164
11289.43,18.78943
11295.21,18.84851
11301.0,18.92056
11306.79,18.92746
11312.57,18.90383
11318.36,18.96457
11324.14,18.92321
11329.93,18.99987
11335.71,19.05906
11341.5,18.97373
11347.28,19.08096
11353.07,19.02731
11358.86,19.00601
11364.64,18.9383
11370.43,18.9008
11376.21,19.02055
11382.0,19.12305
11387.78,19.01866
11393.57,19.06053
11399.35,19.04499
11405.14,19.09541
11410.92,19.14822
11416.71,19.14438
11422.5,19.01299
11428.28,19.16566
11434.07,19.05494
11439.85,19.11562
11445.64,19.01102
11451.42,19.17083
11457.21,19.17388
11462.99,19.1428
11468.78,19.1636
11474.57,19.18739
11480.35,19.26322
11486.14,19.11145
11491.92,19.22878
11497.71,19.25367
11503.49,19.19337
11509.28,19.2285
11515.06,19.21276
11520.85,19.31022
11526.63,19.3633
11532.42,19.26726
11538.21,19.23877
11543.99,19.26929
11549.78,19.32926
11555.56,19.36831
11561.35,19.29968
11567.13,19.29462
11572.92,19.3037
11578.7,19.35228
11584.49,19.26472
11590.28,19.3743
11596.06,19.48776
11601.85,19.33532
11607.63,19.21205
11613.42,19.47695
11619.2,19.32682
11624.99,19.58183
11630.77,19.27572
11636.56,19.32574
11642.34,19.28608
11648.13,19.30111
11653.92,19.29593
11659.7,19.4676
11665.49,19.32596
11671.27,19.48247
11677.06,19.40029
11682.84,19.38038
11688.63,19.27791
11694.41,19.4923
11700.2,19.3055
11705.99,19.4424
11711.77,19.37261
11717.56,19.40749
11723.34,19.32544
11729.13,19.25601
11734.91,19.40243
11740.7,19.4363
11746.48,19.44572
11752.27,19.45023
11758.05,19.32265
11763.84,19.44827
11769.63,19.27389
11775.41,19.3518
11781.2,19.37798
11786.98,19.30168
11792.77,19.37605
11798.55,19.33701
11804.34,19.25503
11810.12,19.40215
11815.91,19.36627
11821.7,19.31584
11827.48,19.2165
11833.27,19.34683
11839.05,19.18286
11844.84,19.28012
11850.62,19.23003
11856.41,19.24444
11862.19,19.27037
11867.98,19.38652
11873.76,19.12592
11879.55,19.28877
11885.34,19.22712
11891.12,19.39192
11896.91,19.24448
11902.69,19.24883
11908.48,19.27082
11914.26,19.12729
11920.05,19.34483
11925.83,19.34641
11931.62,19.33617
11937.41,19.35457
11943.19,19.23793
11948.98,19.43005
11954.76,19.32978
11960.55,19.5518
11966.33,19.30395
11972.12,19.1573
11977.9,19.20871
11983.69,19.16951
11989.47,19.28171
11995.26,19.06606
11999.12,19.35522