File: Data/NIR/N1473LDPE_4.csv
Wavenumber,Intensity
3999.706,2.458613
4005.491,2.467611
4011.277,2.462062
4017.062,2.465391
4022.848,2.460445
4028.633,2.468674
4034.419,2.469497
4040.204,2.47491
4045.99,2.480982
4051.775,2.477582
4057.561,2.481674
4063.346,2.482507
4069.132,2.483337
4074.917,2.486683
4080.703,2.483618
4086.488,2.486579
4092.274,2.485507
4098.059,2.484713
4103.845,2.489777
4109.63,2.48559
4115.416,2.496153
4121.201,2.495474
4126.987,2.490359
4132.772,2.49031
4138.558,2.491034
4144.343,2.495794
4150.129,2.492035
4155.914,2.497843
4161.7,2.496544
4167.485,2.500036
4173.271,2.503735
4179.056,2.509624
4184.842,2.515824
4190.627,2.517458
4196.413,2.520699
4202.198,2.534434
4207.983,2.536738
4213.769,2.548845
4219.555,2.550686
4225.34,2.555635
4231.125,2.562704
4236.911,2.564894
4242.697,2.568583
4248.482,2.561115
4254.268,2.565366
4260.053,2.571968
4265.838,2.579202
4271.624,2.587164
4277.41,2.596524
4283.195,2.591335
4288.98,2.594926
4294.766,2.599805
4300.552,2.600812
4306.337,2.597121
4312.123,2.590852
4317.908,2.579884
4323.693,2.57435
4329.479,2.581415
4335.265,2.5855
4341.05,2.58675
4346.835,2.596341
4352.621,2.601289
4358.407,2.601225
4364.192,2.605146
4369.978,2.618924
4375.763,2.618662
4381.548,2.621715
4387.334,2.62577
4393.12,2.629977
4398.905,2.636771
4404.69,2.646216
4410.476,2.669743
4416.262,2.698476
4422.047,2.731831
4427.833,2.781318
4433.618,2.829859
4439.403,2.887072
4445.189,2.94316
4450.975,3.014471
4456.76,3.084494
4462.545,3.163086
4468.331,3.225246
4474.116,3.295387
4479.902,3.365831
4485.688,3.436394
4491.473,3.505696
4497.258,3.577225
4503.044,3.654737
4508.83,3.736411
4514.615,3.814324
4520.4,3.888735
4526.186,3.961154
4531.971,4.041309
4537.757,4.119312
4543.542,4.197893
4549.328,4.280197
4555.113,4.365277
4560.899,4.453786
4566.685,4.533643
4572.47,4.599072
4578.255,4.65952
4584.041,4.715113
4589.826,4.767962
4595.612,4.808078
4601.397,4.841863
4607.183,4.870437
4612.968,4.903471
4618.754,4.935256
4624.539,4.968411
4630.325,5.002348
4636.11,5.022697
4641.896,5.031807
4647.681,5.029537
4653.467,5.012017
4659.252,4.955795
4665.038,4.899385
4670.823,4.915746
4676.609,5.004588
4682.394,5.08408
4688.18,5.12711
4693.965,5.14549
4699.751,5.147646
4705.536,5.145846
4711.322,5.134799
4717.107,5.104866
4722.893,5.067759
4728.678,5.027396
4734.464,5.00211
4740.249,4.978164
4746.035,4.960226
4751.82,4.931304
4757.605,4.902285
4763.391,4.866199
4769.177,4.807493
4774.962,4.751592
4780.748,4.720805
4786.533,4.699602
4792.319,4.680348
4798.104,4.656791
4803.89,4.621919
4809.675,4.577142
4815.46,4.519746
4821.246,4.465509
4827.032,4.418856
4832.817,4.374844
4838.603,4.320053
4844.388,4.257848
4850.174,4.185052
4855.959,4.12254
4861.745,4.074995
4867.53,4.044045
4873.315,4.041572
4879.101,4.053054
4884.887,4.076649
4890.672,4.096181
4896.458,4.110237
4902.243,4.124281
4908.028,4.138044
4913.814,4.138247
4919.6,4.13479
4925.385,4.127504
4931.17,4.127088
4936.956,4.118773
4942.742,4.104443
4948.527,4.05874
4954.313,3.964996
4960.098,3.848761
4965.883,3.797847
4971.669,3.830129
4977.455,3.860124
4983.24,3.896002
4989.025,3.944067
4994.811,4.00396
5000.597,4.062795
5006.382,4.109816
5012.167,4.126518
5017.953,4.133983
5023.738,4.154385
5029.524,4.175809
5035.31,4.19026
5041.095,4.193016
5046.88,4.19579
5052.666,4.181564
5058.451,4.151968
5064.237,4.135178
5070.022,4.133176
5075.808,4.134694
5081.593,4.123601
5087.379,4.113486
5093.165,4.096608
5098.95,4.084854
5104.735,4.092743
5110.521,4.108379
5116.307,4.12338
5122.092,4.137667
5127.877,4.148407
5133.663,4.153833
5139.448,4.145079
5145.234,4.130649
5151.02,4.102601
5156.805,4.09033
5162.59,4.080455
5168.376,4.073871
5174.161,4.073729
5179.947,4.066557
5185.732,4.06023
5191.518,4.057208
5197.303,4.065935
5203.089,4.07198
5208.874,4.073652
5214.66,4.059906
5220.445,4.067053
5226.231,4.081656
5232.016,4.085399
5237.802,4.089317
5243.587,4.103401
5249.373,4.114635
5255.158,4.119139
5260.944,4.118834
5266.729,4.116594
5272.515,4.108905
5278.3,4.104494
5284.086,4.112097
5289.871,4.114933
5295.657,4.096535
5301.442,4.079213
5307.228,4.058993
5313.013,4.069702
5318.799,4.124742
5324.584,4.154435
5330.37,4.158499
5336.155,4.142249
5341.94,4.095103
5347.726,4.031346
5353.512,3.971116
5359.297,3.91561
5365.083,3.869175
5370.868,3.822288
5376.654,3.788693
5382.439,3.76001
5388.225,3.722842
5394.01,3.679238
5399.796,3.624023
5405.581,3.566198
5411.367,3.504844
5417.152,3.428034
5422.938,3.390245
5428.723,3.366352
5434.509,3.346227
5440.294,3.328454
5446.08,3.316606
5451.865,3.29639
5457.65,3.279438
5463.436,3.267296
5469.222,3.249015
5475.007,3.226526
5480.792,3.196755
5486.578,3.167782
5492.363,3.157662
5498.149,3.157765
5503.935,3.163268
5509.72,3.171997
5515.505,3.182374
5521.291,3.186411
5527.077,3.182036
5532.862,3.180426
5538.647,3.168892
5544.433,3.16477
5550.219,3.162917
5556.004,3.158974
5561.79,3.171765
5567.575,3.201898
5573.36,3.235265
5579.146,3.273136
5584.932,3.300826
5590.717,3.308643
5596.502,3.292876
5602.288,3.265774
5608.073,3.221564
5613.859,3.182379
5619.645,3.135171
5625.43,3.096858
5631.215,3.060226
5637.001,3.020141
5642.786,2.971901
5648.572,2.906003
5654.357,2.831229
5660.143,2.797582
5665.929,2.796536
5671.714,2.806442
5677.5,2.8308
5683.285,2.863401
5689.07,2.892626
5694.856,2.929615
5700.642,2.975777
5706.427,3.027955
5712.212,3.070806
5717.998,3.076796
5723.783,3.021627
5729.569,2.936641
5735.354,2.90597
5741.14,2.874173
5746.925,2.832564
5752.711,2.799285
5758.496,2.775731
5764.282,2.758662
5770.067,2.745324
5775.853,2.740746
5781.638,2.740639
5787.424,2.747553
5793.209,2.763715
5798.995,2.769783
5804.78,2.778955
5810.566,2.785495
5816.352,2.804378
5822.137,2.819491
5827.922,2.843581
5833.708,2.874356
5839.493,2.917552
5845.279,2.970774
5851.064,3.047853
5856.85,3.168477
5862.635,3.33333
5868.421,3.538189
5874.206,3.793067
5879.992,4.082278
5885.777,4.375842
5891.563,4.624927
5897.348,4.807122
5903.134,4.956533
5908.919,5.153369
5914.705,5.426702
5920.49,5.77851
5926.276,6.160779
5932.061,6.529345
5937.847,6.857784
5943.632,7.137499
5949.418,7.387503
5955.203,7.62505
5960.989,7.859663
5966.774,8.099687
5972.56,8.332138
5978.345,8.543048
5984.131,8.736217
5989.916,8.920166
5995.702,9.083361
6001.487,9.245429
6007.272,9.390338
6013.058,9.535549
6018.844,9.666493
6024.629,9.795122
6030.415,9.910522
6036.2,10.01729
6041.985,10.11095
6047.771,10.20499
6053.557,10.28839
6059.342,10.3612
6065.128,10.43166
6070.913,10.49352
6076.698,10.55295
6082.484,10.60159
6088.27,10.64092
6094.055,10.68398
6099.841,10.72028
6105.626,10.75145
6111.412,10.78608
6117.197,10.82324
6122.982,10.86647
6128.768,10.9187
6134.554,10.97237
6140.339,11.02811
6146.125,11.07739
6151.91,11.12622
6157.695,11.1801
6163.481,11.23546
6169.267,11.28026
6175.052,11.33297
6180.837,11.38009
6186.623,11.41439
6192.408,11.44047
6198.194,11.47716
6203.979,11.5061
6209.765,11.52682
6215.551,11.54909
6221.336,11.57477
6227.121,11.59372
6232.907,11.6133
6238.692,11.62309
6244.478,11.63384
6250.264,11.64055
6256.049,11.65144
6261.834,11.6622
6267.62,11.66966
6273.405,11.67369
6279.191,11.68614
6284.977,11.68979
6290.762,11.6934
6296.547,11.69957
6302.333,11.69814
6308.118,11.7007
6313.904,11.70064
6319.689,11.69282
6325.475,11.68065
6331.26,11.67107
6337.046,11.65671
6342.831,11.63521
6348.617,11.60853
6354.402,11.58241
6360.188,11.55688
6365.974,11.50663
6371.759,11.45024
6377.544,11.4127
6383.33,11.37766
6389.115,11.36636
6394.901,11.347
6400.687,11.31165
6406.472,11.25281
6412.257,11.17716
6418.043,11.11518
6423.828,11.08142
6429.614,11.05319
6435.399,11.01985
6441.185,10.95269
6446.97,10.8602
6452.756,10.76434
6458.541,10.64624
6464.327,10.46805
6470.112,10.20481
6475.897,9.896505
6481.684,9.713144
6487.469,9.716649
6493.254,9.799178
6499.04,9.899747
6504.825,9.978395
6510.61,10.05236
6516.396,10.10823
6522.182,10.14894
6527.967,10.18898
6533.753,10.21414
6539.538,10.24803
6545.324,10.26571
6551.109,10.29306
6556.895,10.30179
6562.68,10.33119
6568.466,10.3566
6574.251,10.38254
6580.037,10.40988
6585.822,10.42253
6591.607,10.42781
6597.393,10.43391
6603.179,10.42999
6608.964,10.42387
6614.75,10.41903
6620.535,10.40622
6626.32,10.38991
6632.106,10.363
6637.892,10.34825
6643.677,10.31588
6649.463,10.28993
6655.248,10.25762
6661.034,10.22291
6666.819,10.1864
6672.604,10.1397
6678.39,10.09356
6684.176,10.04979
6689.961,9.994631
6695.747,9.939396
6701.532,9.885864
6707.317,9.823617
6713.103,9.760255
6718.889,9.692375
6724.674,9.63019
6730.459,9.570551
6736.245,9.507986
6742.03,9.44314
6747.816,9.384294
6753.602,9.327137
6759.387,9.251303
6765.173,9.186552
6770.958,9.112818
6776.743,9.022987
6782.529,8.923472
6788.314,8.820878
6794.1,8.70166
6799.886,8.576967
6805.671,8.453279
6811.457,8.339252
6817.242,8.221653
6823.027,8.097446
6828.813,7.957013
6834.599,7.853899
6840.384,7.779907
6846.169,7.714409
6851.955,7.65444
6857.74,7.583201
6863.526,7.513704
6869.312,7.442563
6875.097,7.360287
6880.882,7.270027
6886.668,7.170721
6892.453,7.067151
6898.239,6.983043
6904.024,6.900023
6909.81,6.834315
6915.596,6.761931
6921.381,6.674008
6927.166,6.566645
6932.952,6.450677
6938.737,6.31434
6944.523,6.174374
6950.309,6.103157
6956.094,6.061085
6961.879,6.054302
6967.665,6.043323
6973.45,6.044328
6979.236,6.033425
6985.021,6.015731
6990.807,5.977913
6996.592,5.937716
7002.378,5.881509
7008.163,5.824608
7013.949,5.762668
7019.734,5.703326
7025.52,5.686399
7031.305,5.682334
7037.091,5.695412
7042.876,5.686098
7048.662,5.595745
7054.447,5.447823
7060.232,5.311717
7066.019,5.294849
7071.804,5.443708
7077.589,5.645702
7083.375,5.82117
7089.16,5.936322
7094.946,6.027419
7100.731,6.135752
7106.517,6.278573
7112.302,6.428637
7118.088,6.557734
7123.873,6.661691
7129.659,6.693041
7135.444,6.660689
7141.229,6.561331
7147.015,6.405883
7152.801,6.165858
7158.586,5.754493
7164.372,5.211979
7170.157,4.811221
7175.942,4.811524
7181.729,5.090171
7187.514,5.423809
7193.299,5.759364
7199.085,6.089149
7204.87,6.427667
7210.655,6.724147
7216.441,7.007852
7222.227,7.285546
7228.012,7.58215
7233.798,7.854482
7239.583,8.073594
7245.369,8.309621
7251.154,8.544287
7256.939,8.771786
7262.725,9.000072
7268.511,9.228831
7274.296,9.443797
7280.082,9.648019
7285.867,9.865152
7291.652,10.05703
7297.438,10.25056
7303.224,10.45891
7309.009,10.64736
7314.794,10.82796
7320.58,10.99041
7326.365,11.12711
7332.151,11.22533
7337.937,11.30495
7343.722,11.39479
7349.508,11.46371
7355.293,11.555
7361.079,11.65976
7366.864,11.75506
7372.649,11.84837
7378.435,11.94484
7384.221,12.02931
7390.006,12.09407
7395.792,12.16186
7401.577,12.20446
7407.362,12.23879
7413.148,12.27054
7418.934,12.31046
7424.719,12.3144
7430.504,12.3329
7436.29,12.35364
7442.075,12.35749
7447.861,12.38649
7453.646,12.39842
7459.432,12.39843
7465.218,12.41164
7471.003,12.41376
7476.788,12.42942
7482.574,12.41933
7488.359,12.41355
7494.145,12.41877
7499.931,12.4134
7505.716,12.40604
7511.501,12.38869
7517.287,12.39312
7523.072,12.38816
7528.858,12.38204
7534.644,12.36499
7540.429,12.35371
7546.214,12.34404
7552.0,12.32554
7557.785,12.32221
7563.571,12.29795
7569.356,12.28932
7575.142,12.26753
7580.927,12.25867
7586.713,12.23356
7592.498,12.21138
7598.284,12.19697
7604.069,12.16293
7609.854,12.14115
7615.641,12.11436
7621.426,12.0937
7627.211,12.06609
7632.997,12.0311
7638.782,11.99427
7644.568,11.96901
7650.354,11.93648
7656.139,11.90773
7661.924,11.8841
7667.71,11.86515
7673.495,11.84092
7679.281,11.82128
7685.066,11.79296
7690.852,11.78815
7696.637,11.76315
7702.423,11.74774
7708.208,11.71322
7713.994,11.70329
7719.779,11.67659
7725.564,11.65371
7731.35,11.62694
7737.136,11.60971
7742.921,11.58664
7748.707,11.5719
7754.492,11.55079
7760.277,11.51667
7766.063,11.4897
7771.849,11.46269
7777.634,11.43637
7783.42,11.42818
7789.205,11.40919
7794.991,11.3867
7800.776,11.36979
7806.562,11.33781
7812.347,11.3117
7818.133,11.28812
7823.918,11.24897
7829.704,11.21807
7835.489,11.19409
7841.274,11.15994
7847.06,11.13251
7852.846,11.09018
7858.631,11.04901
7864.417,11.01278
7870.202,10.96901
7875.987,10.92067
7881.773,10.87348
7887.559,10.81918
7893.344,10.76785
7899.13,10.72041
7904.915,10.66543
7910.7,10.61393
7916.486,10.54463
7922.271,10.47897
7928.057,10.42513
7933.843,10.33965
7939.628,10.28734
7945.414,10.21843
7951.199,10.14065
7956.984,10.06227
7962.77,9.979238
7968.556,9.889746
7974.341,9.801607
7980.126,9.715256
7985.912,9.628486
7991.697,9.525049
7997.483,9.433208
8003.269,9.335602
8009.054,9.229425
8014.839,9.122036
8020.625,9.016784
8026.41,8.898795
8032.196,8.776347
8037.981,8.654122
8043.767,8.522387
8049.553,8.392012
8055.338,8.266789
8061.124,8.121054
8066.909,7.985974
8072.694,7.833742
8078.48,7.689138
8084.266,7.544226
8090.051,7.375606
8095.836,7.220106
8101.622,7.04702
8107.407,6.881275
8113.192,6.703547
8118.979,6.509122
8124.764,6.318917
8130.55,6.129272
8136.335,5.933094
8142.12,5.737005
8147.906,5.551493
8153.691,5.350271
8159.477,5.147374
8165.263,4.962745
8171.048,4.763526
8176.833,4.585337
8182.619,4.4225
8188.404,4.284823
8194.189,4.161439
8199.976,4.055123
8205.761,3.955191
8211.546,3.901757
8217.332,3.87135
8223.117,3.856306
8228.902,3.854321
8234.688,3.864639
8240.474,3.856938
8246.259,3.885539
8252.045,3.890068
8257.83,3.927708
8263.616,3.975414
8269.401,4.033136
8275.187,4.108134
8280.973,4.199615
8286.758,4.292055
8292.543,4.395871
8298.329,4.517813
8304.114,4.626348
8309.899,4.737207
8315.686,4.859042
8321.471,4.986883
8327.256,5.107921
8333.042,5.223518
8338.827,5.355527
8344.612,5.494274
8350.398,5.626813
8356.184,5.762949
8361.969,5.911697
8367.755,6.043406
8373.54,6.167731
8379.325,6.286016
8385.111,6.406322
8390.896,6.504381
8396.683,6.5776
8402.468,6.629745
8408.253,6.666062
8414.039,6.707259
8419.824,6.712402
8425.609,6.787654
8431.396,6.888218
8437.181,7.023621
8442.966,7.161376
8448.752,7.362857
8454.537,7.52189
8460.322,7.662076
8466.108,7.795607
8471.894,7.920428
8477.679,8.069469
8483.465,8.211179
8489.25,8.33274
8495.035,8.443797
8500.821,8.545254
8506.606,8.603139
8512.392,8.662907
8518.178,8.734301
8523.963,8.801101
8529.748,8.858655
8535.534,8.875947
8541.319,8.84459
8547.105,8.777884
8552.891,8.69079
8558.676,8.549369
8564.462,8.490207
8570.247,8.57915
8576.032,8.722102
8581.818,8.893253
8587.604,9.094109
8593.389,9.304624
8599.175,9.508117
8604.96,9.714789
8610.745,9.932379
8616.531,10.12213
8622.316,10.30987
8628.102,10.47463
8633.888,10.63075
8639.673,10.75003
8645.458,10.89471
8651.244,10.98621
8657.029,11.08717
8662.814,11.15159
8668.601,11.23395
8674.386,11.2945
8680.172,11.38104
8685.957,11.4519
8691.742,11.5348
8697.528,11.61748
8703.313,11.72779
8709.099,11.83023
8714.885,11.93816
8720.67,12.04055
8726.455,12.13678
8732.241,12.24582
8738.026,12.33102
8743.812,12.41746
8749.598,12.48993
8755.383,12.56183
8761.168,12.64572
8766.954,12.7129
8772.739,12.76421
8778.524,12.82177
8784.311,12.88029
8790.096,12.90766
8795.881,12.96209
8801.667,12.99319
8807.452,13.03169
8813.237,13.0609
8819.023,13.0938
8824.809,13.08903
8830.595,13.11741
8836.38,13.1357
8842.165,13.1612
8847.951,13.16282
8853.736,13.17978
8859.521,13.1737
8865.308,13.19097
8871.093,13.21478
8876.878,13.20592
8882.664,13.21883
8888.449,13.20626
8894.234,13.2076
8900.021,13.20445
8905.806,13.20817
8911.591,13.19172
8917.377,13.21177
8923.162,13.17951
8928.947,13.19376
8934.733,13.19528
8940.519,13.18437
8946.304,13.1836
8952.09,13.16487
8957.875,13.18413
8963.661,13.1826
8969.446,13.17122
8975.231,13.19147
8981.018,13.17925
8986.803,13.19112
8992.588,13.17327
8998.374,13.17663
9004.159,13.19748
9009.944,13.19137
9015.73,13.1966
9021.516,13.22268
9027.301,13.20925
9033.087,13.22038
9038.872,13.2019
9044.657,13.22061
9050.443,13.21447
9056.229,13.21094
9062.014,13.22069
9067.8,13.23507
9073.585,13.23428
9079.37,13.23703
9085.156,13.23188
9090.941,13.22006
9096.727,13.23743
9102.513,13.23274
9108.298,13.23092
9114.084,13.21271
9119.869,13.21531
9125.654,13.20762
9131.44,13.19402
9137.226,13.20775
9143.011,13.18466
9148.797,13.18288
9154.582,13.18997
9160.367,13.14318
9166.153,13.17718
9171.938,13.13363
9177.724,13.12198
9183.51,13.14351
9189.295,13.11905
9195.08,13.11095
9200.866,13.10438
9206.651,13.09104
9212.437,13.08372
9218.223,13.07196
9224.008,13.06372
9229.793,13.04075
9235.579,13.04675
9241.364,13.04258
9247.15,13.05341
9252.936,13.03051
9258.721,13.02067
9264.507,12.99831
9270.292,12.99584
9276.077,12.97753
9281.863,12.979
9287.648,12.97446
9293.434,12.95083
9299.22,12.97425
9305.005,12.95521
9310.79,12.95093
9316.576,12.94585
9322.361,12.94737
9328.146,12.94349
9333.933,12.93828
9339.718,12.93848
9345.503,12.93725
9351.289,12.90094
9357.074,12.90393
9362.859,12.91214
9368.646,12.87288
9374.431,12.88077
9380.217,12.85802
9386.002,12.84246
9391.787,12.82178
9397.573,12.80704
9403.358,12.78441
9409.144,12.78557
9414.93,12.75271
9420.715,12.72308
9426.5,12.72356
9432.286,12.69896
9438.071,12.68661
9443.856,12.68463
9449.643,12.63539
9455.428,12.61686
9461.213,12.60006
9466.999,12.58381
9472.784,12.55427
9478.569,12.53333
9484.355,12.53444
9490.141,12.52548
9495.926,12.51625
9501.712,12.47564
9507.497,12.48284
9513.282,12.46708
9519.068,12.48211
9524.854,12.43593
9530.64,12.42624
9536.425,12.40766
9542.21,12.41377
9547.996,12.37346
9553.781,12.35579
9559.566,12.34543
9565.353,12.32633
9571.138,12.30537
9576.923,12.30339
9582.709,12.30172
9588.494,12.2753
9594.279,12.274
9600.065,12.27397
9605.851,12.28553
9611.636,12.29276
9617.422,12.29728
9623.207,12.3089
9628.992,12.35034
9634.778,12.36162
9640.563,12.35869
9646.349,12.38309
9652.135,12.41707
9657.92,12.43753
9663.706,12.47165
9669.491,12.50721
9675.276,12.52347
9681.063,12.54478
9686.848,12.54702
9692.633,12.56361
9698.419,12.60609
9704.204,12.63297
9709.989,12.64757
9715.775,12.68192
9721.561,12.70227
9727.346,12.73669
9733.132,12.75736
9738.917,12.79672
9744.702,12.79135
9750.488,12.79279
9756.273,12.84342
9762.059,12.84812
9767.845,12.86662
9773.63,12.86049
9779.415,12.82042
9785.201,12.84885
9790.986,12.8454
9796.771,12.84025
9802.558,12.86444
9808.343,12.83412
9814.129,12.87106
9819.914,12.85251
9825.699,12.85043
9831.485,12.87321
9837.271,12.86586
9843.056,12.89899
9848.842,12.93166
9854.627,12.95423
9860.412,12.96055
9866.198,13.00734
9871.983,13.00685
9877.769,13.05506
9883.555,13.08107
9889.34,13.06355
9895.125,13.12261
9900.911,13.15847
9906.696,13.16022
9912.481,13.18217
9918.268,13.15701
9924.053,13.2089
9929.838,13.21324
9935.624,13.23798
9941.409,13.23326
9947.195,13.2913
9952.98,13.30512
9958.766,13.30788
9964.552,13.35044
9970.337,13.35912
9976.122,13.34313
9981.908,13.36117
9987.693,13.40572
9993.479,13.39805
9999.265,13.41426
10005.05,13.40424
10010.83,13.38154
10016.62,13.43565
10022.41,13.44006
10028.19,13.44709
10033.98,13.46952
10039.76,13.50602
10045.55,13.4851
10051.33,13.4974
10057.12,13.51851
10062.9,13.51309
10068.69,13.5011
10074.48,13.54517
10080.26,13.50502
10086.05,13.56445
10091.83,13.56688
10097.62,13.54943
10103.4,13.54195
10109.19,13.53184
10114.97,13.59439
10120.76,13.54854
10126.54,13.56901
10132.33,13.56817
10138.12,13.54125
10143.9,13.58763
10149.69,13.57629
10155.47,13.58417
10161.26,13.56565
10167.04,13.57147
10172.83,13.54434
10178.61,13.56571
10184.4,13.58164
10190.19,13.5812
10195.97,13.60872
10201.76,13.58336
10207.54,13.57652
10213.33,13.57305
10219.11,13.57368
10224.9,13.5635
10230.68,13.5659
10236.47,13.56402
10242.25,13.53975
10248.04,13.5465
10253.83,13.55441
10259.61,13.53191
10265.4,13.50739
10271.18,13.53942
10276.97,13.49623
10282.75,13.52976
10288.54,13.53727
10294.32,13.49718
10300.11,13.53644
10305.9,13.51327
10311.68,13.48327
10317.47,13.47871
10323.25,13.50616
10329.04,13.51612
10334.82,13.49688
10340.61,13.48795
10346.39,13.46413
10352.18,13.5081
10357.96,13.51215
10363.75,13.45298
10369.54,13.42405
10375.32,13.4489
10381.11,13.43604
10386.89,13.43161
10392.68,13.38715
10398.46,13.3818
10404.25,13.41185
10410.03,13.40524
10415.82,13.33989
10421.61,13.40451
10427.39,13.38683
10433.18,13.35897
10438.96,13.30399
10444.75,13.35818
10450.53,13.28321
10456.32,13.2838
10462.1,13.29978
10467.89,13.19448
10473.67,13.2235
10479.46,13.22321
10485.25,13.20491
10491.03,13.174
10496.82,13.13176
10502.6,13.11539
10508.39,13.08699
10514.17,13.07714
10519.96,13.03968
10525.74,13.00006
10531.53,12.98129
10537.32,12.89896
10543.1,12.93077
10548.89,12.88551
10554.67,12.79823
10560.46,12.73352
10566.24,12.71512
10572.03,12.66198
10577.81,12.56904
10583.6,12.51585
10589.38,12.42768
10595.17,12.3649
10600.96,12.33315
10606.74,12.27604
10612.53,12.10043
10618.31,12.05562
10624.1,12.03066
10629.88,11.9344
10635.67,11.84181
10641.45,11.7217
10647.24,11.62016
10653.03,11.50279
10658.81,11.45574
10664.6,11.32513
10670.38,11.28448
10676.17,11.19697
10681.95,11.13853
10687.74,11.01083
10693.52,10.98043
10699.31,10.95411
10705.09,10.88966
10710.88,10.87717
10716.67,10.82657
10722.45,10.88083
10728.24,10.87509
10734.02,10.80139
10739.81,10.90005
10745.59,10.90124
10751.38,10.88294
10757.16,10.92188
10762.95,10.92081
10768.74,10.99491
10774.52,11.0417
10780.31,11.11495
10786.09,11.14434
10791.88,11.16974
10797.66,11.27547
10803.45,11.38383
10809.23,11.40017
10815.02,11.45956
10820.8,11.46182
10826.59,11.48075
10832.38,11.62789
10838.16,11.7343
10843.95,11.79324
10849.73,11.83962
10855.52,11.83227
10861.3,11.93444
10867.09,12.08058
10872.87,12.06847
10878.66,12.10536
10884.45,12.10671
10890.23,12.1781
10896.02,12.24842
10901.8,12.32595
10907.59,12.3298
10913.37,12.43379
10919.16,12.46922
10924.94,12.52746
10930.73,12.52519
10936.51,12.54337
10942.3,12.67392
10948.09,12.69493
10953.87,12.64548
10959.66,12.763
10965.44,12.76072
10971.23,12.84588
10977.01,12.85906
10982.8,12.90361
10988.58,12.95004
10994.37,13.05538
11000.16,13.00544
11005.94,13.08329
11011.73,13.09629
11017.51,13.14934
11023.3,13.13949
11029.08,13.1756
11034.87,13.25904
11040.65,13.25849
11046.44,13.2711
11052.22,13.24954
11058.01,13.27079
11063.79,13.26018
11069.58,13.29034
11075.37,13.32829
11081.15,13.26817
11086.94,13.33018
11092.72,13.31106
11098.51,13.336
11104.29,13.39682
11110.08,13.34905
11115.87,13.28668
11121.65,13.40413
11127.44,13.39931
11133.22,13.37753
11139.01,13.44525
11144.79,13.48006
11150.58,13.4182
11156.36,13.42853
11162.15,13.5162
11167.93,13.46779
11173.72,13.51882
11179.5,13.48066
11185.29,13.53773
11191.08,13.52049
11196.86,13.50821
11202.65,13.59932
11208.43,13.60882
11214.22,13.66054
11220.0,13.59431
11225.79,13.7183
11231.58,13.65267
11237.36,13.63816
11243.15,13.71496
11248.93,13.70749
11254.72,13.66674
11260.5,13.71142
11266.29,13.74273
11272.07,13.72175
11277.86,13.7585
11283.64,13.79088
11289.43,13.79719
11295.21,13.74379
11301.0,13.84693
11306.79,13.78718
11312.57,13.73322
11318.36,13.74787
11324.14,13.79549
11329.93,13.84457
11335.71,13.85629
11341.5,13.82757
11347.28,13.77579
11353.07,13.90749
11358.86,13.89676
11364.64,13.9293
11370.43,13.92779
11376.21,13.97895
11382.0,13.90269
11387.78,13.85633
11393.57,13.88193
11399.35,13.9113
11405.14,13.90163
11410.92,13.90327
11416.71,13.95481
11422.5,13.96857
11428.28,13.99046
11434.07,13.91709
11439.85,13.93504
11445.64,13.9196
11451.42,13.96118
11457.21,13.88392
11462.99,14.04113
11468.78,13.9882
11474.57,13.9762
11480.35,14.04896
11486.14,13.85829
11491.92,13.94307
11497.71,14.04614
11503.49,13.88155
11509.28,13.93248
11515.06,13.99838
11520.85,13.95518
11526.63,14.07118
11532.42,14.03861
11538.21,13.99924
11543.99,13.99443
11549.78,14.07476
11555.56,13.98941
11561.35,14.13991
11567.13,13.97249
11572.92,14.09184
11578.7,14.05951
11584.49,14.13195
11590.28,14.07948
11596.06,14.13117
11601.85,14.05432
11607.63,13.97334
11613.42,14.08909
11619.2,14.05814
11624.99,14.09681
11630.77,14.06717
11636.56,14.15169
11642.34,14.03323
11648.13,14.03207
11653.92,14.05181
11659.7,14.07036
11665.49,14.04897
11671.27,14.08256
11677.06,14.05846
11682.84,14.12289
11688.63,14.12759
11694.41,14.0991
11700.2,14.2044
11705.99,14.03266
11711.77,14.14537
11717.56,14.10776
11723.34,14.07224
11729.13,14.04971
11734.91,14.10615
11740.7,14.00498
11746.48,14.10248
11752.27,14.05902
11758.05,14.13746
11763.84,13.96341
11769.63,13.83719
11775.41,14.11565
11781.2,14.0473
11786.98,13.90901
11792.77,14.0795
11798.55,14.07065
11804.34,13.91412
11810.12,14.09049
11815.91,13.99865
11821.7,13.91664
11827.48,14.01335
11833.27,13.93045
11839.05,13.9748
11844.84,13.97196
11850.62,14.06088
11856.41,13.89619
11862.19,13.9092
11867.98,13.89719
11873.76,13.94644
11879.55,13.81316
11885.34,13.89475
11891.12,13.802
11896.91,13.93471
11902.69,13.91676
11908.48,13.96972
11914.26,14.04672
11920.05,13.98925
11925.83,13.84327
11931.62,14.01497
11937.41,14.02995
11943.19,13.91525
11948.98,13.78052
11954.76,13.91857
11960.55,13.92259
11966.33,13.87745
11972.12,13.78354
11977.9,13.88259
11983.69,13.94765
11989.47,13.88674
11995.26,13.9191
11999.12,13.99587