File: Data/NIR/N1473LDPE_1.csv
Wavenumber,Intensity
3999.706,2.930411
4005.491,2.937146
4011.277,2.943376
4017.062,2.944774
4022.848,2.943532
4028.633,2.952722
4034.419,2.95305
4040.204,2.953996
4045.99,2.955302
4051.775,2.960128
4057.561,2.958798
4063.346,2.963426
4069.132,2.965393
4074.917,2.967068
4080.703,2.972588
4086.488,2.974906
4092.274,2.969955
4098.059,2.97015
4103.845,2.978475
4109.63,2.97233
4115.416,2.978935
4121.201,2.978466
4126.987,2.983289
4132.772,2.980973
4138.558,2.97955
4144.343,2.984383
4150.129,2.984366
4155.914,2.985033
4161.7,2.993064
4167.485,2.989832
4173.271,2.997212
4179.056,3.004671
4184.842,3.007182
4190.627,3.010664
4196.413,3.016757
4202.198,3.030377
4207.983,3.036477
4213.769,3.043208
4219.555,3.047593
4225.34,3.050509
4231.125,3.055286
4236.911,3.061872
4242.697,3.065306
4248.482,3.058179
4254.268,3.05776
4260.053,3.067862
4265.838,3.08231
4271.624,3.085717
4277.41,3.089037
4283.195,3.089445
4288.98,3.096661
4294.766,3.101591
4300.552,3.101257
4306.337,3.098079
4312.123,3.094728
4317.908,3.083624
4323.693,3.07577
4329.479,3.082764
4335.265,3.090577
4341.05,3.095693
4346.835,3.10157
4352.621,3.101782
4358.407,3.109565
4364.192,3.113178
4369.978,3.111652
4375.763,3.115852
4381.548,3.115417
4387.334,3.118496
4393.12,3.125053
4398.905,3.12996
4404.69,3.140153
4410.476,3.15268
4416.262,3.169523
4422.047,3.182401
4427.833,3.211464
4433.618,3.232147
4439.403,3.258004
4445.189,3.28388
4450.975,3.318136
4456.76,3.348003
4462.545,3.373347
4468.331,3.411951
4474.116,3.435778
4479.902,3.471359
4485.688,3.501511
4491.473,3.53312
4497.258,3.566477
4503.044,3.60199
4508.83,3.636785
4514.615,3.672266
4520.4,3.708287
4526.186,3.745523
4531.971,3.784503
4537.757,3.828598
4543.542,3.868922
4549.328,3.912643
4555.113,3.958537
4560.899,4.004725
4566.685,4.04407
4572.47,4.078584
4578.255,4.111001
4584.041,4.142247
4589.826,4.16742
4595.612,4.19045
4601.397,4.215407
4607.183,4.231684
4612.968,4.246061
4618.754,4.266922
4624.539,4.289812
4630.325,4.303813
4636.11,4.314435
4641.896,4.326375
4647.681,4.325277
4653.467,4.316027
4659.252,4.288033
4665.038,4.2605
4670.823,4.274714
4676.609,4.323317
4682.394,4.362889
4688.18,4.388011
4693.965,4.397832
4699.751,4.403342
4705.536,4.405606
4711.322,4.402397
4717.107,4.388555
4722.893,4.369447
4728.678,4.350079
4734.464,4.339109
4740.249,4.329928
4746.035,4.318391
4751.82,4.306762
4757.605,4.292135
4763.391,4.27572
4769.177,4.246771
4774.962,4.218508
4780.748,4.201629
4786.533,4.195159
4792.319,4.188748
4798.104,4.178683
4803.89,4.160482
4809.675,4.137176
4815.46,4.109841
4821.246,4.082381
4827.032,4.056993
4832.817,4.039058
4838.603,4.017185
4844.388,3.9838
4850.174,3.950515
4855.959,3.925203
4861.745,3.900202
4867.53,3.88629
4873.315,3.88584
4879.101,3.89326
4884.887,3.898684
4890.672,3.913171
4896.458,3.920319
4902.243,3.931551
4908.028,3.933089
4913.814,3.938129
4919.6,3.936646
4925.385,3.938355
4931.17,3.935529
4936.956,3.93392
4942.742,3.921106
4948.527,3.898919
4954.313,3.857272
4960.098,3.799594
4965.883,3.78188
4971.669,3.795617
4977.455,3.808381
4983.24,3.828233
4989.025,3.85093
4994.811,3.879458
5000.597,3.910792
5006.382,3.933173
5012.167,3.942686
5017.953,3.94525
5023.738,3.9561
5029.524,3.969233
5035.31,3.977088
5041.095,3.978917
5046.88,3.980741
5052.666,3.972364
5058.451,3.962568
5064.237,3.954295
5070.022,3.955858
5075.808,3.957393
5081.593,3.953118
5087.379,3.945653
5093.165,3.943328
5098.95,3.94117
5104.735,3.943617
5110.521,3.952488
5116.307,3.957323
5122.092,3.966347
5127.877,3.974215
5133.663,3.976979
5139.448,3.972809
5145.234,3.964094
5151.02,3.954399
5156.805,3.949949
5162.59,3.9436
5168.376,3.948867
5174.161,3.940672
5179.947,3.936558
5185.732,3.936547
5191.518,3.934912
5197.303,3.943329
5203.089,3.94782
5208.874,3.942696
5214.66,3.939955
5220.445,3.943014
5226.231,3.951675
5232.016,3.957473
5237.802,3.953266
5243.587,3.969049
5249.373,3.966333
5255.158,3.972717
5260.944,3.979218
5266.729,3.977298
5272.515,3.966384
5278.3,3.971167
5284.086,3.975629
5289.871,3.978264
5295.657,3.965327
5301.442,3.957224
5307.228,3.952573
5313.013,3.952538
5318.799,3.976281
5324.584,3.997653
5330.37,4.004966
5336.155,4.000167
5341.94,3.975219
5347.726,3.940896
5353.512,3.920579
5359.297,3.883429
5365.083,3.861729
5370.868,3.839752
5376.654,3.824418
5382.439,3.808089
5388.225,3.786489
5394.01,3.772418
5399.796,3.745477
5405.581,3.719973
5411.367,3.697263
5417.152,3.65154
5422.938,3.635797
5428.723,3.629182
5434.509,3.61832
5440.294,3.612329
5446.08,3.601306
5451.865,3.591379
5457.65,3.586225
5463.436,3.585734
5469.222,3.571959
5475.007,3.56631
5480.792,3.540461
5486.578,3.537156
5492.363,3.532732
5498.149,3.528329
5503.935,3.530795
5509.72,3.534287
5515.505,3.541127
5521.291,3.545163
5527.077,3.54084
5532.862,3.541664
5538.647,3.538087
5544.433,3.535126
5550.219,3.532407
5556.004,3.531988
5561.79,3.539495
5567.575,3.553132
5573.36,3.568907
5579.146,3.591033
5584.932,3.604379
5590.717,3.6059
5596.502,3.605349
5602.288,3.590106
5608.073,3.567554
5613.859,3.547565
5619.645,3.524391
5625.43,3.506102
5631.215,3.488523
5637.001,3.469516
5642.786,3.441597
5648.572,3.406166
5654.357,3.370623
5660.143,3.34451
5665.929,3.341709
5671.714,3.355499
5677.5,3.372133
5683.285,3.389246
5689.07,3.401353
5694.856,3.423526
5700.642,3.453284
5706.427,3.478084
5712.212,3.499896
5717.998,3.501576
5723.783,3.477892
5729.569,3.431694
5735.354,3.416498
5741.14,3.398561
5746.925,3.373678
5752.711,3.35334
5758.496,3.334376
5764.282,3.324403
5770.067,3.316635
5775.853,3.313085
5781.638,3.317006
5787.424,3.321341
5793.209,3.331743
5798.995,3.330857
5804.78,3.341612
5810.566,3.349344
5816.352,3.361966
5822.137,3.373663
5827.922,3.388135
5833.708,3.403412
5839.493,3.42858
5845.279,3.454352
5851.064,3.503972
5856.85,3.561706
5862.635,3.64379
5868.421,3.74346
5874.206,3.872488
5879.992,4.021354
5885.777,4.171738
5891.563,4.30724
5897.348,4.401367
5903.134,4.484697
5908.919,4.597089
5914.705,4.753281
5920.49,4.955275
5926.276,5.185212
5932.061,5.41257
5937.847,5.613246
5943.632,5.799105
5949.418,5.961785
5955.203,6.121589
5960.989,6.281069
5966.774,6.453024
5972.56,6.615484
5978.345,6.765881
5984.131,6.905356
5989.916,7.039132
5995.702,7.168395
6001.487,7.284002
6007.272,7.400229
6013.058,7.51307
6018.844,7.61856
6024.629,7.716304
6030.415,7.804228
6036.2,7.889847
6041.985,7.970339
6047.771,8.039447
6053.557,8.109789
6059.342,8.172634
6065.128,8.227987
6070.913,8.284089
6076.698,8.327454
6082.484,8.377958
6088.27,8.407468
6094.055,8.446276
6099.841,8.475854
6105.626,8.509044
6111.412,8.536177
6117.197,8.562197
6122.982,8.601457
6128.768,8.649094
6134.554,8.690331
6140.339,8.738087
6146.125,8.786366
6151.91,8.83089
6157.695,8.875612
6163.481,8.925565
6169.267,8.969545
6175.052,9.013571
6180.837,9.049678
6186.623,9.090482
6192.408,9.112915
6198.194,9.145619
6203.979,9.170762
6209.765,9.194948
6215.551,9.218021
6221.336,9.238708
6227.121,9.254034
6232.907,9.279318
6238.692,9.291161
6244.478,9.300586
6250.264,9.307873
6256.049,9.313779
6261.834,9.324108
6267.62,9.335638
6273.405,9.345251
6279.191,9.351093
6284.977,9.360192
6290.762,9.365422
6296.547,9.366733
6302.333,9.374798
6308.118,9.378407
6313.904,9.383212
6319.689,9.378695
6325.475,9.373497
6331.26,9.356235
6337.046,9.343162
6342.831,9.331103
6348.617,9.308848
6354.402,9.285149
6360.188,9.25973
6365.974,9.225855
6371.759,9.180833
6377.544,9.143066
6383.33,9.125264
6389.115,9.104401
6394.901,9.095059
6400.687,9.05829
6406.472,9.011209
6412.257,8.955598
6418.043,8.90137
6423.828,8.874633
6429.614,8.852068
6435.399,8.822274
6441.185,8.769511
6446.97,8.698797
6452.756,8.619781
6458.541,8.515379
6464.327,8.369263
6470.112,8.15554
6475.897,7.90799
6481.684,7.764455
6487.469,7.768555
6493.254,7.839676
6499.04,7.911661
6504.825,7.982386
6510.61,8.046881
6516.396,8.089544
6522.182,8.123912
6527.967,8.158062
6533.753,8.184917
6539.538,8.206146
6545.324,8.229018
6551.109,8.247169
6556.895,8.263844
6562.68,8.282557
6568.466,8.306127
6574.251,8.335436
6580.037,8.363369
6585.822,8.362661
6591.607,8.371048
6597.393,8.372905
6603.179,8.378031
6608.964,8.372393
6614.75,8.368715
6620.535,8.360264
6626.32,8.351971
6632.106,8.328916
6637.892,8.315684
6643.677,8.288874
6649.463,8.276878
6655.248,8.248128
6661.034,8.224091
6666.819,8.181543
6672.604,8.161254
6678.39,8.118536
6684.176,8.08671
6689.961,8.046698
6695.747,8.002039
6701.532,7.954508
6707.317,7.908
6713.103,7.860245
6718.889,7.806133
6724.674,7.757236
6730.459,7.708784
6736.245,7.666369
6742.03,7.619019
6747.816,7.565121
6753.602,7.526747
6759.387,7.47185
6765.173,7.431292
6770.958,7.368877
6776.743,7.30563
6782.529,7.222231
6788.314,7.14419
6794.1,7.057872
6799.886,6.963886
6805.671,6.876869
6811.457,6.793407
6817.242,6.704455
6823.027,6.614779
6828.813,6.522622
6834.599,6.446054
6840.384,6.39006
6846.169,6.349593
6851.955,6.307141
6857.74,6.26009
6863.526,6.213435
6869.312,6.156053
6875.097,6.107447
6880.882,6.042451
6886.668,5.976031
6892.453,5.913458
6898.239,5.847911
6904.024,5.800055
6909.81,5.760098
6915.596,5.714481
6921.381,5.648817
6927.166,5.584638
6932.952,5.505104
6938.737,5.414466
6944.523,5.339834
6950.309,5.285874
6956.094,5.266295
6961.879,5.26113
6967.665,5.25667
6973.45,5.254583
6979.236,5.250688
6985.021,5.229676
6990.807,5.218413
6996.592,5.19022
7002.378,5.154286
7008.163,5.118279
7013.949,5.078973
7019.734,5.050419
7025.52,5.023913
7031.305,5.038271
7037.091,5.039225
7042.876,5.038186
7048.662,4.981699
7054.447,4.901996
7060.232,4.805748
7066.019,4.806222
7071.804,4.893935
7077.589,5.008245
7083.375,5.119556
7089.16,5.190478
7094.946,5.257178
7100.731,5.322321
7106.517,5.419997
7112.302,5.509523
7118.088,5.603575
7123.873,5.664014
7129.659,5.695093
7135.444,5.67122
7141.229,5.6092
7147.015,5.506364
7152.801,5.34236
7158.586,5.103445
7164.372,4.76804
7170.157,4.525393
7175.942,4.520539
7181.729,4.691437
7187.514,4.893644
7193.299,5.107275
7199.085,5.316804
7204.87,5.5392
7210.655,5.737939
7216.441,5.930471
7222.227,6.11948
7228.012,6.332812
7233.798,6.523642
7239.583,6.702109
7245.369,6.873037
7251.154,7.048725
7256.939,7.224247
7262.725,7.396141
7268.511,7.577577
7274.296,7.749255
7280.082,7.921172
7285.867,8.096925
7291.652,8.265018
7297.438,8.428555
7303.224,8.579831
7309.009,8.75791
7314.794,8.913784
7320.58,9.054228
7326.365,9.189958
7332.151,9.268183
7337.937,9.361633
7343.722,9.421386
7349.508,9.489941
7355.293,9.578026
7361.079,9.661065
7366.864,9.765334
7372.649,9.849136
7378.435,9.941273
7384.221,10.02786
7390.006,10.09775
7395.792,10.1454
7401.577,10.18629
7407.362,10.2248
7413.148,10.25507
7418.934,10.28746
7424.719,10.31157
7430.504,10.32975
7436.29,10.34006
7442.075,10.35138
7447.861,10.3688
7453.646,10.38978
7459.432,10.4001
7465.218,10.41081
7471.003,10.40643
7476.788,10.41854
7482.574,10.42587
7488.359,10.4328
7494.145,10.41766
7499.931,10.41634
7505.716,10.4194
7511.501,10.41038
7517.287,10.40455
7523.072,10.40147
7528.858,10.40227
7534.644,10.38927
7540.429,10.38097
7546.214,10.36684
7552.0,10.35466
7557.785,10.34326
7563.571,10.33361
7569.356,10.32285
7575.142,10.30688
7580.927,10.29093
7586.713,10.27809
7592.498,10.25767
7598.284,10.23087
7604.069,10.22586
7609.854,10.20529
7615.641,10.17694
7621.426,10.15708
7627.211,10.1275
7632.997,10.10575
7638.782,10.07422
7644.568,10.0485
7650.354,10.02103
7656.139,10.00668
7661.924,9.979119
7667.71,9.957409
7673.495,9.936098
7679.281,9.918653
7685.066,9.907612
7690.852,9.893062
7696.637,9.872816
7702.423,9.851247
7708.208,9.838824
7713.994,9.821465
7719.779,9.799684
7725.564,9.780967
7731.35,9.750633
7737.136,9.742205
7742.921,9.733313
7748.707,9.709926
7754.492,9.691278
7760.277,9.660598
7766.063,9.64467
7771.849,9.612418
7777.634,9.597379
7783.42,9.593485
7789.205,9.567885
7794.991,9.556401
7800.776,9.534855
7806.562,9.511372
7812.347,9.482405
7818.133,9.470078
7823.918,9.445704
7829.704,9.414651
7835.489,9.392581
7841.274,9.365483
7847.06,9.341394
7852.846,9.300513
7858.631,9.269443
7864.417,9.223293
7870.202,9.197087
7875.987,9.144737
7881.773,9.110933
7887.559,9.076885
7893.344,9.023366
7899.13,9.002844
7904.915,8.924411
7910.7,8.886389
7916.486,8.831618
7922.271,8.787062
7928.057,8.718547
7933.843,8.673029
7939.628,8.609683
7945.414,8.544299
7951.199,8.483074
7956.984,8.415068
7962.77,8.348916
7968.556,8.278634
7974.341,8.210351
7980.126,8.130872
7985.912,8.055161
7991.697,7.978259
7997.483,7.915708
8003.269,7.816018
8009.054,7.743475
8014.839,7.657017
8020.625,7.56548
8026.41,7.477595
8032.196,7.378726
8037.981,7.288995
8043.767,7.200788
8049.553,7.078221
8055.338,6.97315
8061.124,6.87602
8066.909,6.771717
8072.694,6.667186
8078.48,6.553009
8084.266,6.452064
8090.051,6.322678
8095.836,6.216606
8101.622,6.095403
8107.407,5.97364
8113.192,5.852079
8118.979,5.721694
8124.764,5.607265
8130.55,5.466534
8136.335,5.352598
8142.12,5.216555
8147.906,5.07759
8153.691,4.962467
8159.477,4.84357
8165.263,4.724234
8171.048,4.614402
8176.833,4.49897
8182.619,4.405197
8188.404,4.325132
8194.189,4.246821
8199.976,4.182228
8205.761,4.143891
8211.546,4.104273
8217.332,4.086459
8223.117,4.070931
8228.902,4.067823
8234.688,4.069478
8240.474,4.079111
8246.259,4.072804
8252.045,4.103859
8257.83,4.126662
8263.616,4.13908
8269.401,4.187869
8275.187,4.227249
8280.973,4.265268
8286.758,4.330934
8292.543,4.403229
8298.329,4.480547
8304.114,4.537105
8309.899,4.610865
8315.686,4.688005
8321.471,4.760833
8327.256,4.83404
8333.042,4.91399
8338.827,4.989046
8344.612,5.083503
8350.398,5.184417
8356.184,5.26212
8361.969,5.363097
8367.755,5.443252
8373.54,5.52965
8379.325,5.615617
8385.111,5.707767
8390.896,5.773743
8396.683,5.815859
8402.468,5.851392
8408.253,5.890498
8414.039,5.896513
8419.824,5.93261
8425.609,5.965203
8431.396,6.032732
8437.181,6.133579
8442.966,6.251674
8448.752,6.387781
8454.537,6.503619
8460.322,6.61541
8466.108,6.714152
8471.894,6.82142
8477.679,6.922975
8483.465,7.026846
8489.25,7.135893
8495.035,7.232358
8500.821,7.292768
8506.606,7.352607
8512.392,7.401959
8518.178,7.458385
8523.963,7.512829
8529.748,7.550707
8535.534,7.570309
8541.319,7.541307
8547.105,7.496663
8552.891,7.412672
8558.676,7.310874
8564.462,7.267619
8570.247,7.356277
8576.032,7.466439
8581.818,7.61676
8587.604,7.761185
8593.389,7.953526
8599.175,8.117161
8604.96,8.298313
8610.745,8.479416
8616.531,8.64662
8622.316,8.819872
8628.102,8.95254
8633.888,9.095676
8639.673,9.20472
8645.458,9.323783
8651.244,9.424761
8657.029,9.497334
8662.814,9.600015
8668.601,9.657892
8674.386,9.73228
8680.172,9.798732
8685.957,9.87233
8691.742,9.946723
8697.528,10.0498
8703.313,10.12848
8709.099,10.23258
8714.885,10.35014
8720.67,10.43063
8726.455,10.52827
8732.241,10.6404
8738.026,10.71728
8743.812,10.81002
8749.598,10.89615
8755.383,10.98344
8761.168,11.0312
8766.954,11.10324
8772.739,11.1628
8778.524,11.21556
8784.311,11.2847
8790.096,11.33276
8795.881,11.36301
8801.667,11.39493
8807.452,11.43507
8813.237,11.47477
8819.023,11.50277
8824.809,11.52022
8830.595,11.55292
8836.38,11.55392
8842.165,11.57099
8847.951,11.59562
8853.736,11.60685
8859.521,11.59591
8865.308,11.62971
8871.093,11.62466
8876.878,11.62178
8882.664,11.64792
8888.449,11.63812
8894.234,11.64816
8900.021,11.65377
8905.806,11.64418
8911.591,11.65386
8917.377,11.64891
8923.162,11.64993
8928.947,11.64148
8934.733,11.62336
8940.519,11.62858
8946.304,11.63787
8952.09,11.63946
8957.875,11.63216
8963.661,11.63744
8969.446,11.64487
8975.231,11.62744
8981.018,11.65607
8986.803,11.66125
8992.588,11.6556
8998.374,11.64308
9004.159,11.66556
9009.944,11.66737
9015.73,11.68505
9021.516,11.67923
9027.301,11.69163
9033.087,11.70825
9038.872,11.69453
9044.657,11.70367
9050.443,11.71387
9056.229,11.70175
9062.014,11.72585
9067.8,11.72147
9073.585,11.72478
9079.37,11.7249
9085.156,11.74003
9090.941,11.74211
9096.727,11.72153
9102.513,11.74272
9108.298,11.72052
9114.084,11.72403
9119.869,11.7302
9125.654,11.711
9131.44,11.71649
9137.226,11.71315
9143.011,11.68691
9148.797,11.71436
9154.582,11.7042
9160.367,11.69879
9166.153,11.68693
9171.938,11.65976
9177.724,11.6684
9183.51,11.65802
9189.295,11.64402
9195.08,11.639
9200.866,11.63443
9206.651,11.6272
9212.437,11.62083
9218.223,11.60607
9224.008,11.60127
9229.793,11.59185
9235.579,11.59508
9241.364,11.56862
9247.15,11.60048
9252.936,11.57499
9258.721,11.55402
9264.507,11.56557
9270.292,11.55509
9276.077,11.53337
9281.863,11.54864
9287.648,11.50705
9293.434,11.52866
9299.22,11.51168
9305.005,11.51586
9310.79,11.5188
9316.576,11.51431
9322.361,11.51581
9328.146,11.50906
9333.933,11.51359
9339.718,11.50655
9345.503,11.49859
9351.289,11.48258
9357.074,11.48976
9362.859,11.45124
9368.646,11.47528
9374.431,11.43692
9380.217,11.4344
9386.002,11.40501
9391.787,11.38971
9397.573,11.39201
9403.358,11.39066
9409.144,11.34821
9414.93,11.36117
9420.715,11.32725
9426.5,11.31437
9432.286,11.29005
9438.071,11.30212
9443.856,11.2468
9449.643,11.22494
9455.428,11.22965
9461.213,11.19543
9466.999,11.1765
9472.784,11.14996
9478.569,11.15569
9484.355,11.14817
9490.141,11.11917
9495.926,11.11553
9501.712,11.10399
9507.497,11.1099
9513.282,11.09073
9519.068,11.0674
9524.854,11.06398
9530.64,11.04259
9536.425,11.05445
9542.21,11.03166
9547.996,11.01179
9553.781,11.01282
9559.566,10.97242
9565.353,10.9612
9571.138,10.919
9576.923,10.91959
9582.709,10.89881
9588.494,10.90835
9594.279,10.91688
9600.065,10.90931
9605.851,10.89286
9611.636,10.93425
9617.422,10.93947
9623.207,10.9579
9628.992,10.97878
9634.778,11.00072
9640.563,11.02625
9646.349,11.05609
9652.135,11.07893
9657.92,11.10298
9663.706,11.12778
9669.491,11.16051
9675.276,11.18389
9681.063,11.19629
9686.848,11.22818
9692.633,11.25986
9698.419,11.26859
9704.204,11.29161
9709.989,11.32178
9715.775,11.37221
9721.561,11.37087
9727.346,11.41354
9733.132,11.44584
9738.917,11.44378
9744.702,11.4775
9750.488,11.50744
9756.273,11.52737
9762.059,11.55121
9767.845,11.51766
9773.63,11.5422
9779.415,11.5329
9785.201,11.52666
9790.986,11.58461
9796.771,11.59122
9802.558,11.58022
9808.343,11.56591
9814.129,11.5444
9819.914,11.57672
9825.699,11.56386
9831.485,11.5792
9837.271,11.5904
9843.056,11.62623
9848.842,11.6401
9854.627,11.66445
9860.412,11.71316
9866.198,11.73857
9871.983,11.74558
9877.769,11.80447
9883.555,11.82139
9889.34,11.84018
9895.125,11.86752
9900.911,11.87168
9906.696,11.92685
9912.481,11.94691
9918.268,11.95641
9924.053,11.97106
9929.838,11.99139
9935.624,12.00748
9941.409,12.06331
9947.195,12.08388
9952.98,12.09144
9958.766,12.1364
9964.552,12.13743
9970.337,12.16913
9976.122,12.13921
9981.908,12.16436
9987.693,12.18809
9993.479,12.20259
9999.265,12.22864
10005.05,12.22621
10010.83,12.23236
10016.62,12.24864
10022.41,12.21537
10028.19,12.2769
10033.98,12.27645
10039.76,12.31919
10045.55,12.32358
10051.33,12.34768
10057.12,12.3731
10062.9,12.33356
10068.69,12.35282
10074.48,12.38321
10080.26,12.37012
10086.05,12.41124
10091.83,12.39849
10097.62,12.37723
10103.4,12.40898
10109.19,12.44633
10114.97,12.39581
10120.76,12.3918
10126.54,12.43381
10132.33,12.44262
10138.12,12.45496
10143.9,12.44118
10149.69,12.43355
10155.47,12.42661
10161.26,12.42283
10167.04,12.44049
10172.83,12.46001
10178.61,12.41539
10184.4,12.45525
10190.19,12.45203
10195.97,12.48371
10201.76,12.45816
10207.54,12.44858
10213.33,12.47555
10219.11,12.4357
10224.9,12.50041
10230.68,12.46453
10236.47,12.4753
10242.25,12.42838
10248.04,12.45795
10253.83,12.43564
10259.61,12.44648
10265.4,12.45513
10271.18,12.46092
10276.97,12.47609
10282.75,12.39214
10288.54,12.43414
10294.32,12.45125
10300.11,12.44158
10305.9,12.42192
10311.68,12.38323
10317.47,12.3894
10323.25,12.43912
10329.04,12.41028
10334.82,12.43381
10340.61,12.37753
10346.39,12.37391
10352.18,12.37817
10357.96,12.41598
10363.75,12.40615
10369.54,12.35459
10375.32,12.37354
10381.11,12.37629
10386.89,12.3439
10392.68,12.35421
10398.46,12.31211
10404.25,12.34389
10410.03,12.35361
10415.82,12.32583
10421.61,12.33765
10427.39,12.33254
10433.18,12.2557
10438.96,12.23505
10444.75,12.3413
10450.53,12.22979
10456.32,12.24929
10462.1,12.21016
10467.89,12.17343
10473.67,12.17579
10479.46,12.15279
10485.25,12.16803
10491.03,12.14854
10496.82,12.10149
10502.6,12.06661
10508.39,12.05353
10514.17,12.03305
10519.96,11.98738
10525.74,11.96351
10531.53,11.92465
10537.32,11.92225
10543.1,11.88963
10548.89,11.81992
10554.67,11.78262
10560.46,11.70002
10566.24,11.67222
10572.03,11.62802
10577.81,11.49602
10583.6,11.44277
10589.38,11.42792
10595.17,11.35963
10600.96,11.25265
10606.74,11.24802
10612.53,11.13226
10618.31,11.08021
10624.1,10.95309
10629.88,10.90581
10635.67,10.76596
10641.45,10.66281
10647.24,10.58329
10653.03,10.50667
10658.81,10.39967
10664.6,10.32291
10670.38,10.27245
10676.17,10.16061
10681.95,10.14184
10687.74,10.0051
10693.52,9.998581
10699.31,9.950293
10705.09,9.917871
10710.88,9.904215
10716.67,9.862397
10722.45,9.879271
10728.24,9.81915
10734.02,9.851115
10739.81,9.860237
10745.59,9.832688
10751.38,9.89737
10757.16,9.93064
10762.95,9.970789
10768.74,10.00217
10774.52,10.08291
10780.31,10.12823
10786.09,10.16801
10791.88,10.23571
10797.66,10.25016
10803.45,10.29111
10809.23,10.37264
10815.02,10.47271
10820.8,10.51057
10826.59,10.57114
10832.38,10.61382
10838.16,10.72466
10843.95,10.77515
10849.73,10.79919
10855.52,10.83063
10861.3,10.99237
10867.09,11.09442
10872.87,11.10996
10878.66,11.24083
10884.45,11.16804
10890.23,11.22688
10896.02,11.28302
10901.8,11.38328
10907.59,11.39906
10913.37,11.4568
10919.16,11.52238
10924.94,11.5417
10930.73,11.57531
10936.51,11.7261
10942.3,11.61824
10948.09,11.69147
10953.87,11.78799
10959.66,11.87817
10965.44,11.93588
10971.23,12.00708
10977.01,11.96331
10982.8,12.05734
10988.58,12.048
10994.37,12.02071
11000.16,12.13168
11005.94,12.14153
11011.73,12.26271
11017.51,12.24897
11023.3,12.28126
11029.08,12.27826
11034.87,12.27629
11040.65,12.40506
11046.44,12.32051
11052.22,12.40154
11058.01,12.41655
11063.79,12.45131
11069.58,12.46134
11075.37,12.38952
11081.15,12.45366
11086.94,12.45007
11092.72,12.44997
11098.51,12.4657
11104.29,12.54754
11110.08,12.48124
11115.87,12.49989
11121.65,12.55883
11127.44,12.5432
11133.22,12.50182
11139.01,12.52818
11144.79,12.59489
11150.58,12.57957
11156.36,12.73499
11162.15,12.61404
11167.93,12.63511
11173.72,12.60702
11179.5,12.75213
11185.29,12.65853
11191.08,12.68939
11196.86,12.7339
11202.65,12.7496
11208.43,12.80844
11214.22,12.83488
11220.0,12.81685
11225.79,12.87396
11231.58,12.86322
11237.36,12.90827
11243.15,12.86512
11248.93,12.9724
11254.72,12.95166
11260.5,12.99097
11266.29,12.91629
11272.07,12.91716
11277.86,13.02526
11283.64,12.99316
11289.43,12.9522
11295.21,12.93523
11301.0,12.96925
11306.79,13.06663
11312.57,13.05115
11318.36,13.02831
11324.14,13.15729
11329.93,13.18447
11335.71,13.15449
11341.5,13.02175
11347.28,13.16953
11353.07,13.18607
11358.86,13.13598
11364.64,13.03038
11370.43,13.0702
11376.21,13.17808
11382.0,13.17893
11387.78,13.14282
11393.57,13.20492
11399.35,13.16474
11405.14,13.19308
11410.92,13.26639
11416.71,13.23852
11422.5,13.20755
11428.28,13.19368
11434.07,13.2271
11439.85,13.26668
11445.64,13.16384
11451.42,13.29441
11457.21,13.31255
11462.99,13.2846
11468.78,13.27065
11474.57,13.27569
11480.35,13.3391
11486.14,13.24596
11491.92,13.38935
11497.71,13.337
11503.49,13.32091
11509.28,13.35002
11515.06,13.36098
11520.85,13.30895
11526.63,13.40284
11532.42,13.31043
11538.21,13.42941
11543.99,13.35149
11549.78,13.41132
11555.56,13.32024
11561.35,13.31612
11567.13,13.34164
11572.92,13.25479
11578.7,13.40838
11584.49,13.34832
11590.28,13.5246
11596.06,13.50631
11601.85,13.39982
11607.63,13.42198
11613.42,13.48222
11619.2,13.45236
11624.99,13.54607
11630.77,13.3865
11636.56,13.52697
11642.34,13.44959
11648.13,13.48771
11653.92,13.4318
11659.7,13.61176
11665.49,13.39671
11671.27,13.59262
11677.06,13.55837
11682.84,13.43612
11688.63,13.37871
11694.41,13.44072
11700.2,13.42582
11705.99,13.55002
11711.77,13.43295
11717.56,13.46094
11723.34,13.36946
11729.13,13.42873
11734.91,13.48978
11740.7,13.5509
11746.48,13.59587
11752.27,13.55607
11758.05,13.49954
11763.84,13.53495
11769.63,13.47292
11775.41,13.53931
11781.2,13.44397
11786.98,13.35848
11792.77,13.54411
11798.55,13.48954
11804.34,13.4466
11810.12,13.60099
11815.91,13.42386
11821.7,13.49461
11827.48,13.41294
11833.27,13.47672
11839.05,13.55521
11844.84,13.49594
11850.62,13.12609
11856.41,13.53266
11862.19,13.45821
11867.98,13.65098
11873.76,13.4361
11879.55,13.40841
11885.34,13.34368
11891.12,13.44804
11896.91,13.69335
11902.69,13.39401
11908.48,13.477
11914.26,13.44409
11920.05,13.56656
11925.83,13.53837
11931.62,13.58388
11937.41,13.50948
11943.19,13.48519
11948.98,13.55409
11954.76,13.47034
11960.55,13.59492
11966.33,13.35036
11972.12,13.32931
11977.9,13.48396
11983.69,13.41543
11989.47,13.5513
11995.26,13.50022
11999.12,13.53042