File: Data/NIR/N1473LDPE_3.csv
Wavenumber,Intensity
3999.706,3.273554
4005.491,3.280706
4011.277,3.284856
4017.062,3.290642
4022.848,3.285366
4028.633,3.295314
4034.419,3.301167
4040.204,3.297767
4045.99,3.30224
4051.775,3.307615
4057.561,3.309423
4063.346,3.308179
4069.132,3.311106
4074.917,3.318413
4080.703,3.321619
4086.488,3.325538
4092.274,3.323837
4098.059,3.322405
4103.845,3.33093
4109.63,3.329032
4115.416,3.32829
4121.201,3.333318
4126.987,3.330637
4132.772,3.331081
4138.558,3.33571
4144.343,3.33673
4150.129,3.336918
4155.914,3.341633
4161.7,3.342934
4167.485,3.343408
4173.271,3.352239
4179.056,3.354834
4184.842,3.363154
4190.627,3.36306
4196.413,3.372357
4202.198,3.38598
4207.983,3.387253
4213.769,3.400238
4219.555,3.408121
4225.34,3.412836
4231.125,3.415006
4236.911,3.419729
4242.697,3.426244
4248.482,3.423352
4254.268,3.422711
4260.053,3.43056
4265.838,3.443784
4271.624,3.443623
4277.41,3.445388
4283.195,3.445608
4288.98,3.456084
4294.766,3.456726
4300.552,3.460201
4306.337,3.459091
4312.123,3.454926
4317.908,3.447967
4323.693,3.442706
4329.479,3.444245
4335.265,3.450156
4341.05,3.454839
4346.835,3.456657
4352.621,3.462823
4358.407,3.467921
4364.192,3.470442
4369.978,3.468594
4375.763,3.473349
4381.548,3.474627
4387.334,3.475178
4393.12,3.48123
4398.905,3.487137
4404.69,3.500567
4410.476,3.514282
4416.262,3.541636
4422.047,3.57318
4427.833,3.610508
4433.618,3.643183
4439.403,3.682789
4445.189,3.729674
4450.975,3.781349
4456.76,3.83446
4462.545,3.883325
4468.331,3.933414
4474.116,3.97575
4479.902,4.02773
4485.688,4.071547
4491.473,4.113947
4497.258,4.166086
4503.044,4.219735
4508.83,4.26623
4514.615,4.32676
4520.4,4.371944
4526.186,4.427966
4531.971,4.481184
4537.757,4.536803
4543.542,4.592542
4549.328,4.651801
4555.113,4.708816
4560.899,4.772328
4566.685,4.824186
4572.47,4.869516
4578.255,4.914489
4584.041,4.949948
4589.826,4.984346
4595.612,5.014771
4601.397,5.045292
4607.183,5.064569
4612.968,5.081031
4618.754,5.104708
4624.539,5.134098
4630.325,5.155054
4636.11,5.168818
4641.896,5.177922
4647.681,5.180959
4653.467,5.168123
4659.252,5.135238
4665.038,5.095524
4670.823,5.111904
4676.609,5.173097
4682.394,5.224421
4688.18,5.253808
4693.965,5.262998
4699.751,5.271918
4705.536,5.27269
4711.322,5.267399
4717.107,5.252411
4722.893,5.227665
4728.678,5.200968
4734.464,5.181991
4740.249,5.172644
4746.035,5.158343
4751.82,5.144694
4757.605,5.126559
4763.391,5.099918
4769.177,5.069513
4774.962,5.03171
4780.748,5.004371
4786.533,4.99823
4792.319,4.982212
4798.104,4.971437
4803.89,4.948831
4809.675,4.918738
4815.46,4.884939
4821.246,4.845682
4827.032,4.813772
4832.817,4.788239
4838.603,4.756551
4844.388,4.710613
4850.174,4.66295
4855.959,4.625885
4861.745,4.588613
4867.53,4.570681
4873.315,4.570063
4879.101,4.579523
4884.887,4.592774
4890.672,4.607602
4896.458,4.617338
4902.243,4.626968
4908.028,4.637207
4913.814,4.63865
4919.6,4.639008
4925.385,4.636022
4931.17,4.63285
4936.956,4.630672
4942.742,4.614466
4948.527,4.585496
4954.313,4.529801
4960.098,4.44396
4965.883,4.412229
4971.669,4.437772
4977.455,4.454158
4983.24,4.479658
4989.025,4.511978
4994.811,4.551541
5000.597,4.594739
5006.382,4.626608
5012.167,4.634863
5017.953,4.643257
5023.738,4.657242
5029.524,4.676667
5035.31,4.687177
5041.095,4.687824
5046.88,4.69093
5052.666,4.680768
5058.451,4.661089
5064.237,4.653362
5070.022,4.658104
5075.808,4.654515
5081.593,4.64649
5087.379,4.63575
5093.165,4.630545
5098.95,4.628737
5104.735,4.632176
5110.521,4.642364
5116.307,4.652034
5122.092,4.662764
5127.877,4.669731
5133.663,4.67686
5139.448,4.670883
5145.234,4.657445
5151.02,4.641619
5156.805,4.630172
5162.59,4.627138
5168.376,4.631492
5174.161,4.620808
5179.947,4.621121
5185.732,4.613564
5191.518,4.614429
5197.303,4.622529
5203.089,4.630167
5208.874,4.622048
5214.66,4.618905
5220.445,4.620062
5226.231,4.627013
5232.016,4.637438
5237.802,4.641896
5243.587,4.65587
5249.373,4.649361
5255.158,4.654805
5260.944,4.672431
5266.729,4.664646
5272.515,4.653805
5278.3,4.653687
5284.086,4.664228
5289.871,4.663512
5295.657,4.648809
5301.442,4.631593
5307.228,4.629551
5313.013,4.63042
5318.799,4.664256
5324.584,4.695139
5330.37,4.697066
5336.155,4.694902
5341.94,4.660697
5347.726,4.607231
5353.512,4.572357
5359.297,4.529717
5365.083,4.496001
5370.868,4.464183
5376.654,4.44
5382.439,4.420243
5388.225,4.387757
5394.01,4.366467
5399.796,4.324795
5405.581,4.28951
5411.367,4.25159
5417.152,4.189909
5422.938,4.159864
5428.723,4.15253
5434.509,4.133069
5440.294,4.124875
5446.08,4.104636
5451.865,4.094146
5457.65,4.087167
5463.436,4.075629
5469.222,4.057668
5475.007,4.046454
5480.792,4.021167
5486.578,4.003504
5492.363,4.002526
5498.149,3.994126
5503.935,4.002044
5509.72,4.003155
5515.505,4.01403
5521.291,4.015697
5527.077,4.013468
5532.862,4.009237
5538.647,4.008972
5544.433,3.999598
5550.219,3.997527
5556.004,3.99558
5561.79,4.009944
5567.575,4.028954
5573.36,4.051497
5579.146,4.079783
5584.932,4.102236
5590.717,4.110937
5596.502,4.099844
5602.288,4.083545
5608.073,4.047812
5613.859,4.015335
5619.645,3.980729
5625.43,3.952172
5631.215,3.923057
5637.001,3.892604
5642.786,3.854468
5648.572,3.795943
5654.357,3.737538
5660.143,3.701424
5665.929,3.700828
5671.714,3.715147
5677.5,3.74294
5683.285,3.763961
5689.07,3.788506
5694.856,3.820496
5700.642,3.860953
5706.427,3.904582
5712.212,3.934608
5717.998,3.940916
5723.783,3.903006
5729.569,3.828047
5735.354,3.804373
5741.14,3.78158
5746.925,3.740441
5752.711,3.710977
5758.496,3.689121
5764.282,3.674921
5770.067,3.663134
5775.853,3.660579
5781.638,3.666483
5787.424,3.670275
5793.209,3.679444
5798.995,3.683416
5804.78,3.692842
5810.566,3.70295
5816.352,3.71886
5822.137,3.733616
5827.922,3.756341
5833.708,3.78074
5839.493,3.815089
5845.279,3.86118
5851.064,3.932679
5856.85,4.018897
5862.635,4.139521
5868.421,4.295422
5874.206,4.475812
5879.992,4.682071
5885.777,4.886772
5891.563,5.065715
5897.348,5.189174
5903.134,5.294795
5908.919,5.42607
5914.705,5.619336
5920.49,5.861327
5926.276,6.128556
5932.061,6.380934
5937.847,6.609436
5943.632,6.807204
5949.418,6.98115
5955.203,7.147679
5960.989,7.313157
5966.774,7.486744
5972.56,7.654618
5978.345,7.806477
5984.131,7.945292
5989.916,8.076233
5995.702,8.198635
6001.487,8.310229
6007.272,8.420705
6013.058,8.527219
6018.844,8.628013
6024.629,8.727705
6030.415,8.805168
6036.2,8.885088
6041.985,8.95751
6047.771,9.025647
6053.557,9.08872
6059.342,9.144439
6065.128,9.196238
6070.913,9.244084
6076.698,9.285595
6082.484,9.329065
6088.27,9.363275
6094.055,9.394269
6099.841,9.41484
6105.626,9.450939
6111.412,9.473938
6117.197,9.49665
6122.982,9.533616
6128.768,9.575849
6134.554,9.620513
6140.339,9.659619
6146.125,9.699622
6151.91,9.737985
6157.695,9.781223
6163.481,9.821805
6169.267,9.861751
6175.052,9.901086
6180.837,9.93359
6186.623,9.96654
6192.408,9.986467
6198.194,10.01787
6203.979,10.04093
6209.765,10.06275
6215.551,10.08365
6221.336,10.09608
6227.121,10.11346
6232.907,10.1306
6238.692,10.14485
6244.478,10.15089
6250.264,10.1605
6256.049,10.16493
6261.834,10.17623
6267.62,10.18003
6273.405,10.19047
6279.191,10.19772
6284.977,10.20718
6290.762,10.20763
6296.547,10.20671
6302.333,10.21532
6308.118,10.2226
6313.904,10.21805
6319.689,10.21744
6325.475,10.21271
6331.26,10.20279
6337.046,10.18978
6342.831,10.17406
6348.617,10.15857
6354.402,10.13515
6360.188,10.11255
6365.974,10.08244
6371.759,10.04369
6377.544,10.01333
6383.33,9.993669
6389.115,9.979218
6394.901,9.968366
6400.687,9.937635
6406.472,9.897139
6412.257,9.843942
6418.043,9.795084
6423.828,9.771289
6429.614,9.751592
6435.399,9.725082
6441.185,9.674993
6446.97,9.613904
6452.756,9.536806
6458.541,9.449341
6464.327,9.315038
6470.112,9.115786
6475.897,8.894001
6481.684,8.755413
6487.469,8.761172
6493.254,8.82289
6499.04,8.893218
6504.825,8.956862
6510.61,9.013356
6516.396,9.053822
6522.182,9.08429
6527.967,9.115434
6533.753,9.144551
6539.538,9.159135
6545.324,9.180894
6551.109,9.199711
6556.895,9.211586
6562.68,9.229324
6568.466,9.253643
6574.251,9.278677
6580.037,9.30063
6585.822,9.311379
6591.607,9.309102
6597.393,9.316533
6603.179,9.321344
6608.964,9.319037
6614.75,9.307182
6620.535,9.302899
6626.32,9.288542
6632.106,9.271416
6637.892,9.26017
6643.677,9.234015
6649.463,9.221704
6655.248,9.192138
6661.034,9.166993
6666.819,9.134152
6672.604,9.110581
6678.39,9.077381
6684.176,9.045012
6689.961,9.005545
6695.747,8.969179
6701.532,8.923251
6707.317,8.881866
6713.103,8.831832
6718.889,8.781986
6724.674,8.74279
6730.459,8.692753
6736.245,8.647409
6742.03,8.607001
6747.816,8.555107
6753.602,8.51867
6759.387,8.466797
6765.173,8.423203
6770.958,8.35714
6776.743,8.30128
6782.529,8.226277
6788.314,8.149405
6794.1,8.06498
6799.886,7.974726
6805.671,7.884127
6811.457,7.803523
6817.242,7.713278
6823.027,7.617124
6828.813,7.529244
6834.599,7.447402
6840.384,7.393929
6846.169,7.349938
6851.955,7.308135
6857.74,7.25422
6863.526,7.212097
6869.312,7.157046
6875.097,7.100862
6880.882,7.034384
6886.668,6.956571
6892.453,6.893203
6898.239,6.821966
6904.024,6.768752
6909.81,6.725554
6915.596,6.672876
6921.381,6.608347
6927.166,6.540429
6932.952,6.447424
6938.737,6.347678
6944.523,6.258507
6950.309,6.198697
6956.094,6.178426
6961.879,6.173464
6967.665,6.162888
6973.45,6.168858
6979.236,6.153866
6985.021,6.142157
6990.807,6.115439
6996.592,6.087423
7002.378,6.051228
7008.163,6.006782
7013.949,5.968829
7019.734,5.927266
7025.52,5.90356
7031.305,5.915154
7037.091,5.911826
7042.876,5.909073
7048.662,5.841993
7054.447,5.751281
7060.232,5.641999
7066.019,5.641117
7071.804,5.734718
7077.589,5.879298
7083.375,5.999607
7089.16,6.087645
7094.946,6.161749
7100.731,6.236432
7106.517,6.345399
7112.302,6.445496
7118.088,6.533657
7123.873,6.616762
7129.659,6.643678
7135.444,6.618872
7141.229,6.553312
7147.015,6.435247
7152.801,6.255433
7158.586,5.992897
7164.372,5.591738
7170.157,5.296407
7175.942,5.291212
7181.729,5.492836
7187.514,5.737711
7193.299,5.987216
7199.085,6.227145
7204.87,6.466603
7210.655,6.692904
7216.441,6.896526
7222.227,7.093569
7228.012,7.31669
7233.798,7.5
7239.583,7.698741
7245.369,7.849899
7251.154,8.044755
7256.939,8.201206
7262.725,8.374325
7268.511,8.544018
7274.296,8.720971
7280.082,8.875371
7285.867,9.052309
7291.652,9.20561
7297.438,9.3578
7303.224,9.498157
7309.009,9.656176
7314.794,9.795166
7320.58,9.923179
7326.365,10.05341
7332.151,10.10649
7337.937,10.21416
7343.722,10.24219
7349.508,10.28502
7355.293,10.37613
7361.079,10.45242
7366.864,10.5471
7372.649,10.62896
7378.435,10.70526
7384.221,10.77521
7390.006,10.82667
7395.792,10.86813
7401.577,10.91006
7407.362,10.93972
7413.148,10.9736
7418.934,10.9943
7424.719,11.00897
7430.504,11.02907
7436.29,11.04248
7442.075,11.04924
7447.861,11.07416
7453.646,11.07388
7459.432,11.08688
7465.218,11.09897
7471.003,11.10581
7476.788,11.10164
7482.574,11.11638
7488.359,11.11206
7494.145,11.11141
7499.931,11.10505
7505.716,11.11048
7511.501,11.10057
7517.287,11.09598
7523.072,11.09496
7528.858,11.091
7534.644,11.08297
7540.429,11.07079
7546.214,11.06349
7552.0,11.05783
7557.785,11.04981
7563.571,11.04181
7569.356,11.02133
7575.142,11.0075
7580.927,10.99996
7586.713,10.98493
7592.498,10.96956
7598.284,10.95552
7604.069,10.9444
7609.854,10.92801
7615.641,10.90959
7621.426,10.88963
7627.211,10.86355
7632.997,10.8381
7638.782,10.81316
7644.568,10.79019
7650.354,10.77442
7656.139,10.7497
7661.924,10.7308
7667.71,10.7109
7673.495,10.6983
7679.281,10.68284
7685.066,10.66393
7690.852,10.66206
7696.637,10.63959
7702.423,10.62538
7708.208,10.60986
7713.994,10.58986
7719.779,10.57151
7725.564,10.56439
7731.35,10.53882
7737.136,10.52888
7742.921,10.51486
7748.707,10.49937
7754.492,10.48349
7760.277,10.45958
7766.063,10.43661
7771.849,10.41551
7777.634,10.41228
7783.42,10.39275
7789.205,10.37815
7794.991,10.36635
7800.776,10.34541
7806.562,10.32041
7812.347,10.30271
7818.133,10.28584
7823.918,10.27509
7829.704,10.24023
7835.489,10.22528
7841.274,10.19774
7847.06,10.17342
7852.846,10.1375
7858.631,10.09712
7864.417,10.07025
7870.202,10.04504
7875.987,10.00851
7881.773,9.968043
7887.559,9.932523
7893.344,9.895143
7899.13,9.845976
7904.915,9.805851
7910.7,9.763779
7916.486,9.712914
7922.271,9.674013
7928.057,9.626016
7933.843,9.567962
7939.628,9.514235
7945.414,9.458431
7951.199,9.39989
7956.984,9.341025
7962.77,9.277207
7968.556,9.214229
7974.341,9.14516
7980.126,9.07079
7985.912,9.010357
7991.697,8.928399
7997.483,8.861238
8003.269,8.78185
8009.054,8.705142
8014.839,8.623462
8020.625,8.52588
8026.41,8.449217
8032.196,8.342854
8037.981,8.269691
8043.767,8.171281
8049.553,8.07672
8055.338,7.964547
8061.124,7.869814
8066.909,7.749516
8072.694,7.649082
8078.48,7.532141
8084.266,7.423194
8090.051,7.29298
8095.836,7.187197
8101.622,7.065917
8107.407,6.925531
8113.192,6.79692
8118.979,6.659595
8124.764,6.529832
8130.55,6.381585
8136.335,6.224006
8142.12,6.087245
8147.906,5.937204
8153.691,5.789824
8159.477,5.656338
8165.263,5.503112
8171.048,5.365948
8176.833,5.222855
8182.619,5.103408
8188.404,4.993649
8194.189,4.901189
8199.976,4.82353
8205.761,4.757111
8211.546,4.721836
8217.332,4.681019
8223.117,4.679296
8228.902,4.670889
8234.688,4.671076
8240.474,4.685352
8246.259,4.685157
8252.045,4.706952
8257.83,4.74114
8263.616,4.771816
8269.401,4.820682
8275.187,4.874381
8280.973,4.93664
8286.758,5.013379
8292.543,5.09734
8298.329,5.192008
8304.114,5.273027
8309.899,5.361258
8315.686,5.458105
8321.471,5.537055
8327.256,5.634914
8333.042,5.729094
8338.827,5.818124
8344.612,5.931105
8350.398,6.041551
8356.184,6.142606
8361.969,6.240561
8367.755,6.348771
8373.54,6.44252
8379.325,6.523787
8385.111,6.620417
8390.896,6.690726
8396.683,6.749835
8402.468,6.786328
8408.253,6.820899
8414.039,6.847682
8419.824,6.875295
8425.609,6.905339
8431.396,6.97962
8437.181,7.092729
8442.966,7.208146
8448.752,7.334384
8454.537,7.474922
8460.322,7.599396
8466.108,7.699991
8471.894,7.792772
8477.679,7.895725
8483.465,8.00783
8489.25,8.107471
8495.035,8.192601
8500.821,8.280036
8506.606,8.345528
8512.392,8.36809
8518.178,8.4205
8523.963,8.485581
8529.748,8.531088
8535.534,8.545993
8541.319,8.507271
8547.105,8.462348
8552.891,8.3797
8558.676,8.288183
8564.462,8.241985
8570.247,8.321313
8576.032,8.449025
8581.818,8.580012
8587.604,8.708581
8593.389,8.905601
8599.175,9.059646
8604.96,9.221964
8610.745,9.403117
8616.531,9.549643
8622.316,9.709539
8628.102,9.835398
8633.888,9.963106
8639.673,10.06763
8645.458,10.1768
8651.244,10.25796
8657.029,10.32782
8662.814,10.41105
8668.601,10.48064
8674.386,10.53078
8680.172,10.60117
8685.957,10.65577
8691.742,10.72362
8697.528,10.80619
8703.313,10.88554
8709.099,10.96013
8714.885,11.08364
8720.67,11.14504
8726.455,11.23396
8732.241,11.32577
8738.026,11.39236
8743.812,11.48317
8749.598,11.55244
8755.383,11.61827
8761.168,11.66981
8766.954,11.72015
8772.739,11.77428
8778.524,11.8332
8784.311,11.86266
8790.096,11.9245
8795.881,11.93358
8801.667,11.97353
8807.452,12.01418
8813.237,12.03225
8819.023,12.068
8824.809,12.0807
8830.595,12.09145
8836.38,12.10325
8842.165,12.10992
8847.951,12.13532
8853.736,12.14686
8859.521,12.15523
8865.308,12.17463
8871.093,12.17056
8876.878,12.17556
8882.664,12.17618
8888.449,12.1723
8894.234,12.17821
8900.021,12.19765
8905.806,12.19048
8911.591,12.18887
8917.377,12.19798
8923.162,12.19446
8928.947,12.18641
8934.733,12.1767
8940.519,12.17165
8946.304,12.18207
8952.09,12.20639
8957.875,12.16509
8963.661,12.18405
8969.446,12.18184
8975.231,12.17518
8981.018,12.18605
8986.803,12.16958
8992.588,12.21257
8998.374,12.20379
9004.159,12.20193
9009.944,12.21817
9015.73,12.22647
9021.516,12.23244
9027.301,12.23291
9033.087,12.24466
9038.872,12.23238
9044.657,12.23884
9050.443,12.24618
9056.229,12.2538
9062.014,12.26854
9067.8,12.26127
9073.585,12.25993
9079.37,12.24391
9085.156,12.27287
9090.941,12.28043
9096.727,12.2574
9102.513,12.26813
9108.298,12.2467
9114.084,12.24032
9119.869,12.26484
9125.654,12.25646
9131.44,12.24312
9137.226,12.2374
9143.011,12.24297
9148.797,12.2505
9154.582,12.25105
9160.367,12.24072
9166.153,12.23415
9171.938,12.22208
9177.724,12.23435
9183.51,12.19748
9189.295,12.20137
9195.08,12.2038
9200.866,12.18436
9206.651,12.17642
9212.437,12.18199
9218.223,12.16652
9224.008,12.1666
9229.793,12.15593
9235.579,12.14084
9241.364,12.14458
9247.15,12.14747
9252.936,12.12721
9258.721,12.12417
9264.507,12.10872
9270.292,12.12851
9276.077,12.11842
9281.863,12.11042
9287.648,12.08652
9293.434,12.09878
9299.22,12.08032
9305.005,12.11032
9310.79,12.09025
9316.576,12.09368
9322.361,12.09712
9328.146,12.08916
9333.933,12.08045
9339.718,12.0822
9345.503,12.08617
9351.289,12.08434
9357.074,12.06332
9362.859,12.04665
9368.646,12.04271
9374.431,12.03277
9380.217,12.04494
9386.002,12.00644
9391.787,11.99745
9397.573,12.00743
9403.358,11.98748
9409.144,11.96203
9414.93,11.96959
9420.715,11.92501
9426.5,11.90864
9432.286,11.90434
9438.071,11.8874
9443.856,11.85817
9449.643,11.87038
9455.428,11.84575
9461.213,11.81098
9466.999,11.80339
9472.784,11.79283
9478.569,11.77295
9484.355,11.80703
9490.141,11.76602
9495.926,11.7666
9501.712,11.75578
9507.497,11.76273
9513.282,11.7301
9519.068,11.73512
9524.854,11.73027
9530.64,11.716
9536.425,11.70435
9542.21,11.69359
9547.996,11.6651
9553.781,11.66315
9559.566,11.6495
9565.353,11.6221
9571.138,11.61792
9576.923,11.61464
9582.709,11.56563
9588.494,11.60749
9594.279,11.59785
9600.065,11.57391
9605.851,11.59104
9611.636,11.60465
9617.422,11.62667
9623.207,11.64264
9628.992,11.65001
9634.778,11.67269
9640.563,11.67359
9646.349,11.72886
9652.135,11.7266
9657.92,11.75845
9663.706,11.76878
9669.491,11.78903
9675.276,11.82189
9681.063,11.82189
9686.848,11.89158
9692.633,11.86164
9698.419,11.90863
9704.204,11.9148
9709.989,11.95371
9715.775,11.9945
9721.561,12.00078
9727.346,12.03372
9733.132,12.03185
9738.917,12.07419
9744.702,12.09435
9750.488,12.13277
9756.273,12.10749
9762.059,12.12838
9767.845,12.11797
9773.63,12.12894
9779.415,12.13348
9785.201,12.13316
9790.986,12.18026
9796.771,12.17779
9802.558,12.1753
9808.343,12.16066
9814.129,12.15179
9819.914,12.17747
9825.699,12.14927
9831.485,12.16998
9837.271,12.20456
9843.056,12.21678
9848.842,12.2205
9854.627,12.26834
9860.412,12.28848
9866.198,12.32468
9871.983,12.30663
9877.769,12.39297
9883.555,12.36849
9889.34,12.40489
9895.125,12.43311
9900.911,12.43019
9906.696,12.45823
9912.481,12.47991
9918.268,12.51284
9924.053,12.51633
9929.838,12.53019
9935.624,12.52592
9941.409,12.59267
9947.195,12.5995
9952.98,12.6075
9958.766,12.63768
9964.552,12.67087
9970.337,12.68875
9976.122,12.68669
9981.908,12.67353
9987.693,12.67263
9993.479,12.71995
9999.265,12.71681
10005.05,12.70214
10010.83,12.72573
10016.62,12.74379
10022.41,12.74685
10028.19,12.73368
10033.98,12.77233
10039.76,12.77642
10045.55,12.81178
10051.33,12.81623
10057.12,12.84447
10062.9,12.82057
10068.69,12.81213
10074.48,12.83889
10080.26,12.87924
10086.05,12.87473
10091.83,12.86224
10097.62,12.87152
10103.4,12.88475
10109.19,12.89705
10114.97,12.85975
10120.76,12.90001
10126.54,12.93812
10132.33,12.90469
10138.12,12.90926
10143.9,12.917
10149.69,12.91593
10155.47,12.88937
10161.26,12.94775
10167.04,12.92705
10172.83,12.95994
10178.61,12.89342
10184.4,12.94125
10190.19,12.94587
10195.97,12.94971
10201.76,12.9335
10207.54,12.93939
10213.33,12.94285
10219.11,12.95379
10224.9,12.94673
10230.68,12.95542
10236.47,12.92338
10242.25,12.93912
10248.04,12.89053
10253.83,12.94458
10259.61,12.90951
10265.4,12.93201
10271.18,12.92789
10276.97,12.96707
10282.75,12.87739
10288.54,12.92255
10294.32,12.91788
10300.11,12.93363
10305.9,12.91993
10311.68,12.87261
10317.47,12.9116
10323.25,12.91914
10329.04,12.89967
10334.82,12.89757
10340.61,12.90955
10346.39,12.89826
10352.18,12.87041
10357.96,12.89062
10363.75,12.8766
10369.54,12.85377
10375.32,12.86381
10381.11,12.90717
10386.89,12.88547
10392.68,12.81646
10398.46,12.79574
10404.25,12.81963
10410.03,12.85097
10415.82,12.84037
10421.61,12.86811
10427.39,12.83448
10433.18,12.82989
10438.96,12.77347
10444.75,12.84513
10450.53,12.7716
10456.32,12.80687
10462.1,12.76277
10467.89,12.74406
10473.67,12.72375
10479.46,12.7182
10485.25,12.71078
10491.03,12.6746
10496.82,12.64071
10502.6,12.63239
10508.39,12.64004
10514.17,12.62284
10519.96,12.57282
10525.74,12.54296
10531.53,12.48927
10537.32,12.52862
10543.1,12.45815
10548.89,12.40486
10554.67,12.38665
10560.46,12.33325
10566.24,12.27351
10572.03,12.24997
10577.81,12.14892
10583.6,12.13992
10589.38,12.0967
10595.17,12.0811
10600.96,11.94958
10606.74,11.90376
10612.53,11.83668
10618.31,11.7654
10624.1,11.67358
10629.88,11.64099
10635.67,11.47235
10641.45,11.44496
10647.24,11.38317
10653.03,11.27896
10658.81,11.19413
10664.6,11.15063
10670.38,11.02926
10676.17,10.94208
10681.95,10.94219
10687.74,10.83036
10693.52,10.80702
10699.31,10.75381
10705.09,10.77082
10710.88,10.7688
10716.67,10.69969
10722.45,10.69303
10728.24,10.68072
10734.02,10.69016
10739.81,10.72367
10745.59,10.67688
10751.38,10.74179
10757.16,10.78879
10762.95,10.7827
10768.74,10.8091
10774.52,10.89692
10780.31,10.90287
10786.09,10.98068
10791.88,10.9977
10797.66,11.07508
10803.45,11.13761
10809.23,11.21417
10815.02,11.24501
10820.8,11.31884
10826.59,11.35854
10832.38,11.39633
10838.16,11.50534
10843.95,11.553
10849.73,11.54655
10855.52,11.57901
10861.3,11.72421
10867.09,11.75531
10872.87,11.78105
10878.66,11.88396
10884.45,11.93432
10890.23,11.97008
10896.02,12.01476
10901.8,12.1077
10907.59,12.14332
10913.37,12.22218
10919.16,12.21888
10924.94,12.23288
10930.73,12.24938
10936.51,12.38831
10942.3,12.30395
10948.09,12.33823
10953.87,12.42095
10959.66,12.47696
10965.44,12.50337
10971.23,12.59368
10977.01,12.54671
10982.8,12.61107
10988.58,12.6641
10994.37,12.63579
11000.16,12.70344
11005.94,12.73493
11011.73,12.74511
11017.51,12.82093
11023.3,12.84908
11029.08,12.88667
11034.87,12.85184
11040.65,12.94577
11046.44,12.9129
11052.22,12.92768
11058.01,12.96569
11063.79,13.01929
11069.58,13.017
11075.37,12.98058
11081.15,13.01634
11086.94,13.06225
11092.72,13.03451
11098.51,13.05802
11104.29,13.06781
11110.08,13.02022
11115.87,13.07281
11121.65,13.0946
11127.44,13.06366
11133.22,13.02259
11139.01,13.0213
11144.79,13.13806
11150.58,13.10687
11156.36,13.17655
11162.15,13.21169
11167.93,13.16887
11173.72,13.13572
11179.5,13.22878
11185.29,13.16777
11191.08,13.18265
11196.86,13.26219
11202.65,13.23194
11208.43,13.31386
11214.22,13.4061
11220.0,13.38993
11225.79,13.3484
11231.58,13.30952
11237.36,13.35704
11243.15,13.33958
11248.93,13.43615
11254.72,13.4311
11260.5,13.52404
11266.29,13.47548
11272.07,13.46694
11277.86,13.43442
11283.64,13.55582
11289.43,13.48849
11295.21,13.36396
11301.0,13.50838
11306.79,13.54038
11312.57,13.56053
11318.36,13.49597
11324.14,13.47982
11329.93,13.67111
11335.71,13.60701
11341.5,13.57133
11347.28,13.74142
11353.07,13.6488
11358.86,13.62423
11364.64,13.56311
11370.43,13.5267
11376.21,13.57357
11382.0,13.65988
11387.78,13.58026
11393.57,13.68962
11399.35,13.65311
11405.14,13.61208
11410.92,13.70729
11416.71,13.7567
11422.5,13.74011
11428.28,13.7191
11434.07,13.6799
11439.85,13.74324
11445.64,13.53412
11451.42,13.82119
11457.21,13.76794
11462.99,13.70616
11468.78,13.69103
11474.57,13.74534
11480.35,13.878
11486.14,13.71539
11491.92,13.8015
11497.71,13.72802
11503.49,13.78105
11509.28,13.81102
11515.06,13.80507
11520.85,13.8028
11526.63,13.89831
11532.42,13.74974
11538.21,13.82411
11543.99,13.78417
11549.78,13.82648
11555.56,13.76942
11561.35,13.79517
11567.13,13.70407
11572.92,13.80416
11578.7,13.81696
11584.49,13.87559
11590.28,13.81645
11596.06,13.93411
11601.85,13.91015
11607.63,13.86684
11613.42,13.86845
11619.2,13.88107
11624.99,14.00829
11630.77,13.87778
11636.56,13.98796
11642.34,13.87273
11648.13,13.89444
11653.92,13.93681
11659.7,13.97386
11665.49,13.75545
11671.27,13.99538
11677.06,13.91541
11682.84,13.9753
11688.63,13.90407
11694.41,13.93299
11700.2,13.92048
11705.99,14.00383
11711.77,13.96294
11717.56,13.92401
11723.34,13.97783
11729.13,13.74963
11734.91,13.88213
11740.7,13.99537
11746.48,13.92685
11752.27,13.95732
11758.05,13.93685
11763.84,13.98366
11769.63,13.96546
11775.41,13.91235
11781.2,13.89205
11786.98,13.82831
11792.77,13.91003
11798.55,13.7651
11804.34,13.85587
11810.12,13.98241
11815.91,13.90907
11821.7,13.94663
11827.48,13.91625
11833.27,13.89568
11839.05,13.74096
11844.84,14.00251
11850.62,13.87257
11856.41,13.76591
11862.19,13.78659
11867.98,13.9857
11873.76,13.76022
11879.55,13.8796
11885.34,13.75198
11891.12,13.82347
11896.91,13.80409
11902.69,13.78991
11908.48,13.94489
11914.26,13.6637
11920.05,13.93923
11925.83,13.90278
11931.62,13.98846
11937.41,13.75822
11943.19,13.89569
11948.98,13.90713
11954.76,13.81324
11960.55,13.99691
11966.33,13.93902
11972.12,13.71427
11977.9,13.72069
11983.69,13.73541
11989.47,13.88758
11995.26,13.80972
11999.12,13.99642