File: Data/NIR/N1473LDPE_5.csv
Wavenumber,Intensity
3999.706,2.044662
4005.491,2.050011
4011.277,2.048202
4017.062,2.054107
4022.848,2.052964
4028.633,2.060167
4034.419,2.066487
4040.204,2.067205
4045.99,2.069798
4051.775,2.068479
4057.561,2.067857
4063.346,2.066012
4069.132,2.072958
4074.917,2.075748
4080.703,2.074915
4086.488,2.07855
4092.274,2.070317
4098.059,2.076417
4103.845,2.08069
4109.63,2.079445
4115.416,2.081197
4121.201,2.080219
4126.987,2.081171
4132.772,2.087404
4138.558,2.083251
4144.343,2.086045
4150.129,2.086948
4155.914,2.087893
4161.7,2.087918
4167.485,2.089177
4173.271,2.094022
4179.056,2.101167
4184.842,2.105461
4190.627,2.107549
4196.413,2.110634
4202.198,2.122699
4207.983,2.120969
4213.769,2.13414
4219.555,2.134262
4225.34,2.136815
4231.125,2.141443
4236.911,2.144717
4242.697,2.149338
4248.482,2.140864
4254.268,2.144299
4260.053,2.151368
4265.838,2.155003
4271.624,2.158938
4277.41,2.1662
4283.195,2.159904
4288.98,2.164935
4294.766,2.169254
4300.552,2.169816
4306.337,2.168647
4312.123,2.159742
4317.908,2.156464
4323.693,2.150613
4329.479,2.15781
4335.265,2.162297
4341.05,2.163174
4346.835,2.167695
4352.621,2.171745
4358.407,2.169891
4364.192,2.174436
4369.978,2.181296
4375.763,2.180363
4381.548,2.185092
4387.334,2.180112
4393.12,2.182895
4398.905,2.185672
4404.69,2.191098
4410.476,2.200107
4416.262,2.208229
4422.047,2.216907
4427.833,2.233181
4433.618,2.249226
4439.403,2.27348
4445.189,2.292959
4450.975,2.314561
4456.76,2.343152
4462.545,2.373228
4468.331,2.401316
4474.116,2.429808
4479.902,2.461655
4485.688,2.488928
4491.473,2.52361
4497.258,2.551215
4503.044,2.590337
4508.83,2.627839
4514.615,2.66802
4520.4,2.699938
4526.186,2.740404
4531.971,2.780598
4537.757,2.821383
4543.542,2.864678
4549.328,2.907944
4555.113,2.953552
4560.899,3.002967
4566.685,3.044776
4572.47,3.087415
4578.255,3.120674
4584.041,3.149826
4589.826,3.181485
4595.612,3.202044
4601.397,3.222186
4607.183,3.241382
4612.968,3.256929
4618.754,3.278438
4624.539,3.299283
4630.325,3.31765
4636.11,3.332772
4641.896,3.335161
4647.681,3.334673
4653.467,3.327091
4659.252,3.297025
4665.038,3.263468
4670.823,3.272768
4676.609,3.326495
4682.394,3.371112
4688.18,3.393602
4693.965,3.409021
4699.751,3.412943
4705.536,3.404117
4711.322,3.401813
4717.107,3.3876
4722.893,3.364351
4728.678,3.343835
4734.464,3.326153
4740.249,3.31621
4746.035,3.303324
4751.82,3.285691
4757.605,3.269509
4763.391,3.253415
4769.177,3.220743
4774.962,3.188664
4780.748,3.173761
4786.533,3.160944
4792.319,3.14928
4798.104,3.137322
4803.89,3.120246
4809.675,3.094752
4815.46,3.06578
4821.246,3.041172
4827.032,3.014256
4832.817,2.993451
4838.603,2.961717
4844.388,2.932538
4850.174,2.89541
4855.959,2.860835
4861.745,2.843628
4867.53,2.826513
4873.315,2.823524
4879.101,2.829547
4884.887,2.842795
4890.672,2.850258
4896.458,2.856683
4902.243,2.86551
4908.028,2.873815
4913.814,2.871169
4919.6,2.872955
4925.385,2.866679
4931.17,2.866009
4936.956,2.862208
4942.742,2.857085
4948.527,2.83791
4954.313,2.788181
4960.098,2.73228
4965.883,2.705089
4971.669,2.720699
4977.455,2.738684
4983.24,2.75416
4989.025,2.778768
4994.811,2.805208
5000.597,2.840933
5006.382,2.860828
5012.167,2.869961
5017.953,2.873655
5023.738,2.885346
5029.524,2.8973
5035.31,2.904353
5041.095,2.906102
5046.88,2.907282
5052.666,2.903403
5058.451,2.885195
5064.237,2.879292
5070.022,2.875356
5075.808,2.875585
5081.593,2.871705
5087.379,2.867028
5093.165,2.858083
5098.95,2.853173
5104.735,2.856258
5110.521,2.866735
5116.307,2.876996
5122.092,2.880477
5127.877,2.885983
5133.663,2.889944
5139.448,2.884762
5145.234,2.876442
5151.02,2.866042
5156.805,2.860495
5162.59,2.856331
5168.376,2.85308
5174.161,2.851767
5179.947,2.850567
5185.732,2.844674
5191.518,2.846345
5197.303,2.849516
5203.089,2.856677
5208.874,2.85455
5214.66,2.846258
5220.445,2.850532
5226.231,2.861118
5232.016,2.86093
5237.802,2.859875
5243.587,2.87733
5249.373,2.878941
5255.158,2.880716
5260.944,2.880652
5266.729,2.880836
5272.515,2.873521
5278.3,2.871399
5284.086,2.880296
5289.871,2.879221
5295.657,2.870574
5301.442,2.86336
5307.228,2.853803
5313.013,2.857241
5318.799,2.881912
5324.584,2.899317
5330.37,2.903054
5336.155,2.899
5341.94,2.871868
5347.726,2.843824
5353.512,2.813674
5359.297,2.779914
5365.083,2.758957
5370.868,2.733027
5376.654,2.727373
5382.439,2.707632
5388.225,2.690282
5394.01,2.675832
5399.796,2.641206
5405.581,2.622132
5411.367,2.599327
5417.152,2.555811
5422.938,2.543616
5428.723,2.542952
5434.509,2.530486
5440.294,2.522574
5446.08,2.514117
5451.865,2.504285
5457.65,2.498127
5463.436,2.495588
5469.222,2.486928
5475.007,2.483489
5480.792,2.463194
5486.578,2.456152
5492.363,2.456172
5498.149,2.453846
5503.935,2.455844
5509.72,2.456298
5515.505,2.459798
5521.291,2.465761
5527.077,2.464041
5532.862,2.458002
5538.647,2.455949
5544.433,2.454087
5550.219,2.453483
5556.004,2.451295
5561.79,2.458857
5567.575,2.467162
5573.36,2.482744
5579.146,2.49785
5584.932,2.509554
5590.717,2.513062
5596.502,2.507613
5602.288,2.497623
5608.073,2.477944
5613.859,2.460583
5619.645,2.445268
5625.43,2.430435
5631.215,2.422127
5637.001,2.400802
5642.786,2.387852
5648.572,2.362612
5654.357,2.339245
5660.143,2.325869
5665.929,2.328728
5671.714,2.327235
5677.5,2.335637
5683.285,2.351013
5689.07,2.362656
5694.856,2.371735
5700.642,2.388861
5706.427,2.406916
5712.212,2.429277
5717.998,2.424825
5723.783,2.406248
5729.569,2.377831
5735.354,2.369641
5741.14,2.359505
5746.925,2.341049
5752.711,2.328921
5758.496,2.321032
5764.282,2.313284
5770.067,2.305828
5775.853,2.306177
5781.638,2.303392
5787.424,2.304799
5793.209,2.315368
5798.995,2.321005
5804.78,2.323027
5810.566,2.327294
5816.352,2.333176
5822.137,2.340215
5827.922,2.348003
5833.708,2.359761
5839.493,2.375474
5845.279,2.393013
5851.064,2.418345
5856.85,2.464228
5862.635,2.529639
5868.421,2.62155
5874.206,2.736925
5879.992,2.876346
5885.777,3.024356
5891.563,3.162429
5897.348,3.257694
5903.134,3.345296
5908.919,3.457268
5914.705,3.619075
5920.49,3.832944
5926.276,4.074374
5932.061,4.317829
5937.847,4.532416
5943.632,4.725878
5949.418,4.900677
5955.203,5.07139
5960.989,5.242995
5966.774,5.417888
5972.56,5.591843
5978.345,5.750366
5984.131,5.900558
5989.916,6.042567
5995.702,6.171452
6001.487,6.301531
6007.272,6.41932
6013.058,6.53435
6018.844,6.646375
6024.629,6.746509
6030.415,6.850307
6036.2,6.936847
6041.985,7.014422
6047.771,7.090919
6053.557,7.162263
6059.342,7.228079
6065.128,7.28484
6070.913,7.338968
6076.698,7.385802
6082.484,7.430972
6088.27,7.465184
6094.055,7.507724
6099.841,7.534908
6105.626,7.563541
6111.412,7.594608
6117.197,7.626372
6122.982,7.666685
6128.768,7.714725
6134.554,7.762203
6140.339,7.807419
6146.125,7.8549
6151.91,7.898605
6157.695,7.946671
6163.481,7.994394
6169.267,8.036272
6175.052,8.085568
6180.837,8.12394
6186.623,8.155443
6192.408,8.185841
6198.194,8.216281
6203.979,8.244472
6209.765,8.260018
6215.551,8.287948
6221.336,8.307878
6227.121,8.325435
6232.907,8.343388
6238.692,8.357486
6244.478,8.361069
6250.264,8.372347
6256.049,8.382154
6261.834,8.389132
6267.62,8.397266
6273.405,8.405017
6279.191,8.41942
6284.977,8.419024
6290.762,8.421651
6296.547,8.428929
6302.333,8.430839
6308.118,8.433657
6313.904,8.43234
6319.689,8.42318
6325.475,8.416212
6331.26,8.406417
6337.046,8.397041
6342.831,8.37692
6348.617,8.348548
6354.402,8.323051
6360.188,8.304758
6365.974,8.260679
6371.759,8.211021
6377.544,8.177258
6383.33,8.147403
6389.115,8.13293
6394.901,8.11959
6400.687,8.082619
6406.472,8.03677
6412.257,7.966978
6418.043,7.91124
6423.828,7.880065
6429.614,7.860872
6435.399,7.827164
6441.185,7.766297
6446.97,7.687871
6452.756,7.60666
6458.541,7.498499
6464.327,7.355598
6470.112,7.120793
6475.897,6.860343
6481.684,6.711389
6487.469,6.716123
6493.254,6.785055
6499.04,6.868936
6504.825,6.930829
6510.61,6.994488
6516.396,7.042844
6522.182,7.072986
6527.967,7.109955
6533.753,7.133423
6539.538,7.159278
6545.324,7.181319
6551.109,7.199778
6556.895,7.216795
6562.68,7.230981
6568.466,7.26001
6574.251,7.278346
6580.037,7.305001
6585.822,7.320367
6591.607,7.326897
6597.393,7.327445
6603.179,7.321585
6608.964,7.322801
6614.75,7.314329
6620.535,7.307545
6626.32,7.292289
6632.106,7.273764
6637.892,7.251834
6643.677,7.227291
6649.463,7.207831
6655.248,7.180343
6661.034,7.150524
6666.819,7.117456
6672.604,7.080385
6678.39,7.042846
6684.176,7.007556
6689.961,6.960774
6695.747,6.911694
6701.532,6.870099
6707.317,6.817081
6713.103,6.764536
6718.889,6.705491
6724.674,6.657808
6730.459,6.610122
6736.245,6.558254
6742.03,6.504699
6747.816,6.457673
6753.602,6.408732
6759.387,6.353488
6765.173,6.301148
6770.958,6.242606
6776.743,6.165749
6782.529,6.085242
6788.314,6.008033
6794.1,5.914854
6799.886,5.819587
6805.671,5.72255
6811.457,5.636865
6817.242,5.541746
6823.027,5.454306
6828.813,5.349766
6834.599,5.272111
6840.384,5.217457
6846.169,5.17408
6851.955,5.132873
6857.74,5.074733
6863.526,5.034148
6869.312,4.979753
6875.097,4.9226
6880.882,4.852812
6886.668,4.786162
6892.453,4.712333
6898.239,4.655585
6904.024,4.6021
6909.81,4.551222
6915.596,4.504889
6921.381,4.443829
6927.166,4.369368
6932.952,4.294209
6938.737,4.202404
6944.523,4.115569
6950.309,4.063442
6956.094,4.043169
6961.879,4.033566
6967.665,4.029797
6973.45,4.025363
6979.236,4.023528
6985.021,4.0064
6990.807,3.984939
6996.592,3.959862
7002.378,3.927027
7008.163,3.880897
7013.949,3.846671
7019.734,3.809016
7025.52,3.79955
7031.305,3.796126
7037.091,3.80902
7042.876,3.804356
7048.662,3.747613
7054.447,3.660896
7060.232,3.570036
7066.019,3.563388
7071.804,3.658399
7077.589,3.778798
7083.375,3.892842
7089.16,3.959576
7094.946,4.025554
7100.731,4.090039
7106.517,4.187873
7112.302,4.289694
7118.088,4.380144
7123.873,4.437464
7129.659,4.465683
7135.444,4.442793
7141.229,4.373616
7147.015,4.271379
7152.801,4.108089
7158.586,3.854354
7164.372,3.517573
7170.157,3.286361
7175.942,3.284563
7181.729,3.446666
7187.514,3.649179
7193.299,3.853261
7199.085,4.056966
7204.87,4.290652
7210.655,4.490991
7216.441,4.679028
7222.227,4.878827
7228.012,5.099087
7233.798,5.288106
7239.583,5.462235
7245.369,5.634234
7251.154,5.817195
7256.939,5.992842
7262.725,6.179856
7268.511,6.357764
7274.296,6.539715
7280.082,6.707316
7285.867,6.8908
7291.652,7.054749
7297.438,7.221422
7303.224,7.393327
7309.009,7.572757
7314.794,7.725554
7320.58,7.869156
7326.365,8.004987
7332.151,8.078249
7337.937,8.165668
7343.722,8.24298
7349.508,8.30032
7355.293,8.391919
7361.079,8.481635
7366.864,8.587876
7372.649,8.668615
7378.435,8.751861
7384.221,8.830171
7390.006,8.906646
7395.792,8.962504
7401.577,8.998835
7407.362,9.033976
7413.148,9.07255
7418.934,9.101781
7424.719,9.116961
7430.504,9.128244
7436.29,9.149901
7442.075,9.160541
7447.861,9.182585
7453.646,9.192146
7459.432,9.19635
7465.218,9.206851
7471.003,9.208726
7476.788,9.228823
7482.574,9.213678
7488.359,9.216001
7494.145,9.220595
7499.931,9.210588
7505.716,9.204516
7511.501,9.196788
7517.287,9.188994
7523.072,9.188576
7528.858,9.180577
7534.644,9.162621
7540.429,9.158253
7546.214,9.147408
7552.0,9.135069
7557.785,9.121643
7563.571,9.105422
7569.356,9.100583
7575.142,9.074206
7580.927,9.072237
7586.713,9.047652
7592.498,9.028015
7598.284,9.01216
7604.069,8.98006
7609.854,8.964953
7615.641,8.935838
7621.426,8.922954
7627.211,8.890477
7632.997,8.861741
7638.782,8.829333
7644.568,8.796619
7650.354,8.772215
7656.139,8.747068
7661.924,8.722367
7667.71,8.696667
7673.495,8.681659
7679.281,8.65918
7685.066,8.636176
7690.852,8.628625
7696.637,8.608026
7702.423,8.582396
7708.208,8.564668
7713.994,8.550987
7719.779,8.532309
7725.564,8.508258
7731.35,8.48802
7737.136,8.466503
7742.921,8.451157
7748.707,8.437414
7754.492,8.410461
7760.277,8.385928
7766.063,8.356709
7771.849,8.33658
7777.634,8.312223
7783.42,8.306533
7789.205,8.284704
7794.991,8.272319
7800.776,8.24194
7806.562,8.220466
7812.347,8.196924
7818.133,8.171376
7823.918,8.14002
7829.704,8.10725
7835.489,8.098687
7841.274,8.059385
7847.06,8.036302
7852.846,8.000533
7858.631,7.96362
7864.417,7.929125
7870.202,7.887653
7875.987,7.852567
7881.773,7.793332
7887.559,7.750386
7893.344,7.709165
7899.13,7.668276
7904.915,7.613623
7910.7,7.575158
7916.486,7.50786
7922.271,7.451865
7928.057,7.397646
7933.843,7.329276
7939.628,7.28723
7945.414,7.227582
7951.199,7.158113
7956.984,7.089078
7962.77,7.014529
7968.556,6.943535
7974.341,6.867214
7980.126,6.800012
7985.912,6.725231
7991.697,6.637155
7997.483,6.564695
8003.269,6.480809
8009.054,6.39352
8014.839,6.319597
8020.625,6.217007
8026.41,6.119024
8032.196,6.038714
8037.981,5.932218
8043.767,5.826692
8049.553,5.738538
8055.338,5.625371
8061.124,5.525505
8066.909,5.420112
8072.694,5.296228
8078.48,5.193355
8084.266,5.079435
8090.051,4.955584
8095.836,4.849144
8101.622,4.738643
8107.407,4.621181
8113.192,4.491414
8118.979,4.362211
8124.764,4.240659
8130.55,4.120959
8136.335,3.984851
8142.12,3.859309
8147.906,3.743201
8153.691,3.614727
8159.477,3.491282
8165.263,3.390438
8171.048,3.279002
8176.833,3.182893
8182.619,3.085835
8188.404,3.008727
8194.189,2.939762
8199.976,2.891538
8205.761,2.842643
8211.546,2.815032
8217.332,2.799963
8223.117,2.791392
8228.902,2.790632
8234.688,2.790156
8240.474,2.806342
8246.259,2.819991
8252.045,2.812948
8257.83,2.831388
8263.616,2.859644
8269.401,2.886506
8275.187,2.919568
8280.973,2.972218
8286.758,3.015909
8292.543,3.07171
8298.329,3.140686
8304.114,3.199714
8309.899,3.268302
8315.686,3.337614
8321.471,3.399019
8327.256,3.480356
8333.042,3.535857
8338.827,3.621835
8344.612,3.714409
8350.398,3.797146
8356.184,3.88243
8361.969,3.978261
8367.755,4.064023
8373.54,4.136662
8379.325,4.225185
8385.111,4.300275
8390.896,4.36028
8396.683,4.410816
8402.468,4.438289
8408.253,4.478626
8414.039,4.50461
8419.824,4.513726
8425.609,4.566276
8431.396,4.616016
8437.181,4.718634
8442.966,4.836613
8448.752,4.961164
8454.537,5.087708
8460.322,5.184605
8466.108,5.281783
8471.894,5.385134
8477.679,5.498003
8483.465,5.605505
8489.25,5.698324
8495.035,5.78727
8500.821,5.85723
8506.606,5.924839
8512.392,5.951153
8518.178,6.018417
8523.963,6.064521
8529.748,6.111612
8535.534,6.128878
8541.319,6.107656
8547.105,6.058095
8552.891,5.972032
8558.676,5.876902
8564.462,5.823173
8570.247,5.902524
8576.032,6.03544
8581.818,6.146071
8587.604,6.309997
8593.389,6.472666
8599.175,6.643183
8604.96,6.825385
8610.745,7.004951
8616.531,7.182589
8622.316,7.343948
8628.102,7.483715
8633.888,7.622674
8639.673,7.739707
8645.458,7.850883
8651.244,7.941507
8657.029,8.032443
8662.814,8.097366
8668.601,8.170494
8674.386,8.231025
8680.172,8.316149
8685.957,8.374003
8691.742,8.464851
8697.528,8.53053
8703.313,8.642911
8709.099,8.737833
8714.885,8.837867
8720.67,8.929701
8726.455,9.032049
8732.241,9.123616
8738.026,9.219378
8743.812,9.310731
8749.598,9.371183
8755.383,9.431254
8761.168,9.52891
8766.954,9.583379
8772.739,9.647081
8778.524,9.698153
8784.311,9.764096
8790.096,9.787135
8795.881,9.836822
8801.667,9.87711
8807.452,9.910418
8813.237,9.930007
8819.023,9.962361
8824.809,9.983198
8830.595,9.990417
8836.38,10.01833
8842.165,10.03804
8847.951,10.05979
8853.736,10.06297
8859.521,10.05878
8865.308,10.08139
8871.093,10.0989
8876.878,10.09205
8882.664,10.09446
8888.449,10.09319
8894.234,10.09694
8900.021,10.08711
8905.806,10.09472
8911.591,10.07882
8917.377,10.08442
8923.162,10.07845
8928.947,10.08013
8934.733,10.07032
8940.519,10.05978
8946.304,10.07456
8952.09,10.05795
8957.875,10.07333
8963.661,10.05629
8969.446,10.07483
8975.231,10.07413
8981.018,10.07722
8986.803,10.08788
8992.588,10.05392
8998.374,10.0724
9004.159,10.0888
9009.944,10.09016
9015.73,10.08889
9021.516,10.10695
9027.301,10.12097
9033.087,10.12016
9038.872,10.1054
9044.657,10.12294
9050.443,10.11261
9056.229,10.11768
9062.014,10.126
9067.8,10.12811
9073.585,10.13114
9079.37,10.12586
9085.156,10.1158
9090.941,10.1281
9096.727,10.13718
9102.513,10.13104
9108.298,10.13868
9114.084,10.10993
9119.869,10.10875
9125.654,10.10615
9131.44,10.10012
9137.226,10.09612
9143.011,10.08735
9148.797,10.0886
9154.582,10.09655
9160.367,10.07138
9166.153,10.06123
9171.938,10.03371
9177.724,10.03458
9183.51,10.04944
9189.295,10.03272
9195.08,10.01215
9200.866,10.01464
9206.651,9.996187
9212.437,10.00363
9218.223,9.979959
9224.008,9.977189
9229.793,9.961053
9235.579,9.951313
9241.364,9.95289
9247.15,9.934329
9252.936,9.915701
9258.721,9.929889
9264.507,9.908906
9270.292,9.892486
9276.077,9.879193
9281.863,9.898715
9287.648,9.873369
9293.434,9.853211
9299.22,9.869946
9305.005,9.86609
9310.79,9.857393
9316.576,9.846603
9322.361,9.869623
9328.146,9.859008
9333.933,9.851198
9339.718,9.874353
9345.503,9.860829
9351.289,9.800712
9357.074,9.831179
9362.859,9.804115
9368.646,9.79191
9374.431,9.79763
9380.217,9.762785
9386.002,9.743526
9391.787,9.746935
9397.573,9.724201
9403.358,9.710101
9409.144,9.686949
9414.93,9.672152
9420.715,9.644465
9426.5,9.62556
9432.286,9.618553
9438.071,9.601581
9443.856,9.58692
9449.643,9.547328
9455.428,9.542316
9461.213,9.5254
9466.999,9.491182
9472.784,9.47618
9478.569,9.447501
9484.355,9.446112
9490.141,9.452798
9495.926,9.420591
9501.712,9.412458
9507.497,9.396704
9513.282,9.378532
9519.068,9.382458
9524.854,9.369684
9530.64,9.35414
9536.425,9.344392
9542.21,9.341223
9547.996,9.300998
9553.781,9.30132
9559.566,9.268342
9565.353,9.253853
9571.138,9.237543
9576.923,9.246403
9582.709,9.207128
9588.494,9.21577
9594.279,9.183208
9600.065,9.210874
9605.851,9.201714
9611.636,9.209901
9617.422,9.24711
9623.207,9.234285
9628.992,9.280241
9634.778,9.273484
9640.563,9.292904
9646.349,9.327678
9652.135,9.350384
9657.92,9.372255
9663.706,9.389564
9669.491,9.434559
9675.276,9.458969
9681.063,9.470686
9686.848,9.475675
9692.633,9.496744
9698.419,9.53685
9704.204,9.565716
9709.989,9.562777
9715.775,9.630944
9721.561,9.638396
9727.346,9.66428
9733.132,9.693353
9738.917,9.725508
9744.702,9.701811
9750.488,9.733487
9756.273,9.763039
9762.059,9.775547
9767.845,9.788034
9773.63,9.785406
9779.415,9.797077
9785.201,9.768488
9790.986,9.775687
9796.771,9.785247
9802.558,9.776572
9808.343,9.785538
9814.129,9.803919
9819.914,9.789653
9825.699,9.772175
9831.485,9.80083
9837.271,9.807881
9843.056,9.837118
9848.842,9.86173
9854.627,9.906504
9860.412,9.914743
9866.198,9.939839
9871.983,9.958693
9877.769,9.998865
9883.555,10.01431
9889.34,10.04417
9895.125,10.08497
9900.911,10.10516
9906.696,10.13585
9912.481,10.13271
9918.268,10.12475
9924.053,10.15269
9929.838,10.19056
9935.624,10.21524
9941.409,10.21754
9947.195,10.25079
9952.98,10.27266
9958.766,10.28831
9964.552,10.29773
9970.337,10.32459
9976.122,10.33508
9981.908,10.3266
9987.693,10.36494
9993.479,10.35613
9999.265,10.37796
10005.05,10.40132
10010.83,10.36193
10016.62,10.43141
10022.41,10.41678
10028.19,10.42172
10033.98,10.4367
10039.76,10.45346
10045.55,10.47172
10051.33,10.47786
10057.12,10.48315
10062.9,10.48325
10068.69,10.49127
10074.48,10.50374
10080.26,10.4862
10086.05,10.5155
10091.83,10.54175
10097.62,10.52273
10103.4,10.52433
10109.19,10.52174
10114.97,10.56888
10120.76,10.54936
10126.54,10.53961
10132.33,10.55082
10138.12,10.52976
10143.9,10.53958
10149.69,10.56223
10155.47,10.56118
10161.26,10.57605
10167.04,10.53455
10172.83,10.54722
10178.61,10.56487
10184.4,10.5435
10190.19,10.5923
10195.97,10.61115
10201.76,10.56335
10207.54,10.55897
10213.33,10.57332
10219.11,10.58218
10224.9,10.53875
10230.68,10.53088
10236.47,10.54555
10242.25,10.54582
10248.04,10.55318
10253.83,10.53698
10259.61,10.50676
10265.4,10.53241
10271.18,10.50272
10276.97,10.52959
10282.75,10.53927
10288.54,10.52009
10294.32,10.51013
10300.11,10.51073
10305.9,10.5201
10311.68,10.48348
10317.47,10.4725
10323.25,10.48209
10329.04,10.49328
10334.82,10.46507
10340.61,10.46441
10346.39,10.45485
10352.18,10.50813
10357.96,10.49484
10363.75,10.44236
10369.54,10.41276
10375.32,10.44814
10381.11,10.42386
10386.89,10.42365
10392.68,10.40977
10398.46,10.39203
10404.25,10.40043
10410.03,10.39671
10415.82,10.36476
10421.61,10.4058
10427.39,10.35708
10433.18,10.33135
10438.96,10.29323
10444.75,10.38924
10450.53,10.2542
10456.32,10.28158
10462.1,10.29005
10467.89,10.21219
10473.67,10.18775
10479.46,10.27175
10485.25,10.19173
10491.03,10.18918
10496.82,10.12415
10502.6,10.08863
10508.39,10.0826
10514.17,10.0709
10519.96,10.05623
10525.74,9.970568
10531.53,9.950877
10537.32,9.952376
10543.1,9.89019
10548.89,9.837512
10554.67,9.785291
10560.46,9.714339
10566.24,9.702621
10572.03,9.649449
10577.81,9.586299
10583.6,9.516113
10589.38,9.455745
10595.17,9.370193
10600.96,9.316632
10606.74,9.262421
10612.53,9.121606
10618.31,9.050515
10624.1,9.022543
10629.88,8.951015
10635.67,8.867002
10641.45,8.772716
10647.24,8.649735
10653.03,8.528404
10658.81,8.519249
10664.6,8.384614
10670.38,8.316255
10676.17,8.260991
10681.95,8.204267
10687.74,8.11041
10693.52,8.054339
10699.31,7.975595
10705.09,7.973002
10710.88,7.95285
10716.67,7.952881
10722.45,7.960281
10728.24,7.922237
10734.02,7.929026
10739.81,7.921621
10745.59,7.999692
10751.38,7.959796
10757.16,8.017181
10762.95,8.014858
10768.74,8.061015
10774.52,8.142118
10780.31,8.141563
10786.09,8.225003
10791.88,8.233062
10797.66,8.326501
10803.45,8.407637
10809.23,8.398439
10815.02,8.511908
10820.8,8.522515
10826.59,8.595594
10832.38,8.662378
10838.16,8.744123
10843.95,8.769663
10849.73,8.852979
10855.52,8.886938
10861.3,8.988523
10867.09,9.091155
10872.87,9.062731
10878.66,9.079703
10884.45,9.12316
10890.23,9.192194
10896.02,9.270645
10901.8,9.357021
10907.59,9.340508
10913.37,9.468328
10919.16,9.480856
10924.94,9.500335
10930.73,9.500648
10936.51,9.597249
10942.3,9.664022
10948.09,9.669765
10953.87,9.703805
10959.66,9.745923
10965.44,9.782724
10971.23,9.849884
10977.01,9.857347
10982.8,9.878136
10988.58,9.95409
10994.37,10.00449
11000.16,9.995057
11005.94,10.03517
11011.73,10.10004
11017.51,10.15121
11023.3,10.16775
11029.08,10.15713
11034.87,10.22676
11040.65,10.26524
11046.44,10.25316
11052.22,10.2585
11058.01,10.25313
11063.79,10.30679
11069.58,10.28516
11075.37,10.29167
11081.15,10.27478
11086.94,10.30154
11092.72,10.31396
11098.51,10.33647
11104.29,10.34872
11110.08,10.33181
11115.87,10.34122
11121.65,10.40345
11127.44,10.42077
11133.22,10.41161
11139.01,10.43881
11144.79,10.42496
11150.58,10.43347
11156.36,10.45521
11162.15,10.55208
11167.93,10.4809
11173.72,10.46665
11179.5,10.4881
11185.29,10.54196
11191.08,10.51617
11196.86,10.50876
11202.65,10.61955
11208.43,10.59975
11214.22,10.61178
11220.0,10.60973
11225.79,10.65061
11231.58,10.62931
11237.36,10.60299
11243.15,10.7135
11248.93,10.82647
11254.72,10.76559
11260.5,10.7894
11266.29,10.78923
11272.07,10.75217
11277.86,10.80576
11283.64,10.84311
11289.43,10.81242
11295.21,10.74861
11301.0,10.82943
11306.79,10.75815
11312.57,10.77123
11318.36,10.74807
11324.14,10.75122
11329.93,10.82182
11335.71,10.9132
11341.5,10.80993
11347.28,10.80331
11353.07,10.91495
11358.86,10.95434
11364.64,10.94494
11370.43,10.97315
11376.21,10.9406
11382.0,10.89839
11387.78,10.88324
11393.57,10.93827
11399.35,11.02044
11405.14,10.96285
11410.92,10.95652
11416.71,10.99696
11422.5,11.0013
11428.28,10.97575
11434.07,10.95177
11439.85,11.06601
11445.64,11.01395
11451.42,11.04974
11457.21,11.00605
11462.99,11.01329
11468.78,11.00848
11474.57,11.01616
11480.35,11.01881
11486.14,10.98257
11491.92,10.88873
11497.71,11.0291
11503.49,10.97644
11509.28,10.95535
11515.06,11.10774
11520.85,11.02711
11526.63,11.0775
11532.42,11.12444
11538.21,11.08862
11543.99,11.06305
11549.78,11.04743
11555.56,11.06096
11561.35,11.12387
11567.13,11.06257
11572.92,11.13137
11578.7,11.03873
11584.49,11.15039
11590.28,11.02826
11596.06,11.04491
11601.85,11.12062
11607.63,11.03262
11613.42,11.21296
11619.2,11.14661
11624.99,11.20922
11630.77,11.06476
11636.56,11.19697
11642.34,11.07388
11648.13,11.03638
11653.92,11.06352
11659.7,11.12539
11665.49,11.08373
11671.27,11.01731
11677.06,11.15007
11682.84,11.13955
11688.63,11.07389
11694.41,11.21908
11700.2,11.1854
11705.99,11.2023
11711.77,11.19125
11717.56,10.99889
11723.34,11.16744
11729.13,11.15337
11734.91,11.23141
11740.7,11.2083
11746.48,11.16435
11752.27,11.17364
11758.05,11.02184
11763.84,11.10391
11769.63,11.08982
11775.41,11.14302
11781.2,11.11707
11786.98,11.09701
11792.77,11.23108
11798.55,11.11963
11804.34,11.15345
11810.12,11.22223
11815.91,11.09596
11821.7,11.02244
11827.48,11.17488
11833.27,11.07632
11839.05,11.08292
11844.84,11.10559
11850.62,11.13259
11856.41,10.99825
11862.19,11.08817
11867.98,11.19937
11873.76,11.23167
11879.55,10.89903
11885.34,10.95276
11891.12,10.90578
11896.91,11.0189
11902.69,11.07062
11908.48,11.1526
11914.26,11.25974
11920.05,11.00895
11925.83,10.99806
11931.62,11.17321
11937.41,11.0112
11943.19,11.0497
11948.98,11.07722
11954.76,11.12915
11960.55,11.10921
11966.33,11.00935
11972.12,10.9951
11977.9,11.12958
11983.69,11.13929
11989.47,10.91247
11995.26,11.06338
11999.12,11.10543