File: Data/NIR/S0024LDPE_6.csv
Wavenumber,Intensity
3999.706,3.613563
4005.491,3.610088
4011.277,3.621503
4017.062,3.621077
4022.848,3.62695
4028.633,3.63074
4034.419,3.633096
4040.204,3.635856
4045.99,3.645971
4051.775,3.646515
4057.561,3.651533
4063.346,3.650097
4069.132,3.65295
4074.917,3.65308
4080.703,3.658923
4086.488,3.660328
4092.274,3.663599
4098.059,3.661741
4103.845,3.669272
4109.63,3.663413
4115.416,3.668957
4121.201,3.669163
4126.987,3.673424
4132.772,3.672935
4138.558,3.673368
4144.343,3.674645
4150.129,3.677556
4155.914,3.680232
4161.7,3.678848
4167.485,3.686439
4173.271,3.690422
4179.056,3.699531
4184.842,3.697316
4190.627,3.707437
4196.413,3.717729
4202.198,3.719033
4207.983,3.726886
4213.769,3.738302
4219.555,3.744787
4225.34,3.750542
4231.125,3.75466
4236.911,3.762784
4242.697,3.7625
4248.482,3.76295
4254.268,3.766172
4260.053,3.7729
4265.838,3.779104
4271.624,3.784855
4277.41,3.7903
4283.195,3.796195
4288.98,3.798686
4294.766,3.799286
4300.552,3.801672
4306.337,3.799247
4312.123,3.798709
4317.908,3.789743
4323.693,3.784573
4329.479,3.791239
4335.265,3.794316
4341.05,3.800899
4346.835,3.799858
4352.621,3.810944
4358.407,3.809767
4364.192,3.811066
4369.978,3.814806
4375.763,3.814207
4381.548,3.816387
4387.334,3.815082
4393.12,3.821056
4398.905,3.818975
4404.69,3.82525
4410.476,3.837555
4416.262,3.84694
4422.047,3.861917
4427.833,3.885054
4433.618,3.89552
4439.403,3.926197
4445.189,3.952428
4450.975,3.980071
4456.76,4.010082
4462.545,4.040149
4468.331,4.066642
4474.116,4.09495
4479.902,4.123922
4485.688,4.155696
4491.473,4.183408
4497.258,4.213581
4503.044,4.246889
4508.83,4.279771
4514.615,4.313148
4520.4,4.352504
4526.186,4.378469
4531.971,4.412848
4537.757,4.454178
4543.542,4.495693
4549.328,4.535913
4555.113,4.578617
4560.899,4.618815
4566.685,4.655291
4572.47,4.692995
4578.255,4.720229
4584.041,4.748478
4589.826,4.768542
4595.612,4.793636
4601.397,4.806396
4607.183,4.825541
4612.968,4.843085
4618.754,4.859559
4624.539,4.878714
4630.325,4.896055
4636.11,4.905515
4641.896,4.913833
4647.681,4.915526
4653.467,4.907748
4659.252,4.879727
4665.038,4.857406
4670.823,4.871887
4676.609,4.909527
4682.394,4.947872
4688.18,4.970719
4693.965,4.980172
4699.751,4.986405
4705.536,4.984558
4711.322,4.982107
4717.107,4.973022
4722.893,4.95479
4728.678,4.939807
4734.464,4.929451
4740.249,4.924591
4746.035,4.918368
4751.82,4.90684
4757.605,4.895707
4763.391,4.881206
4769.177,4.857466
4774.962,4.826331
4780.748,4.815613
4786.533,4.811897
4792.319,4.801662
4798.104,4.790318
4803.89,4.776011
4809.675,4.756948
4815.46,4.734587
4821.246,4.709949
4827.032,4.692324
4832.817,4.669712
4838.603,4.649202
4844.388,4.622539
4850.174,4.5918
4855.959,4.563336
4861.745,4.545034
4867.53,4.528109
4873.315,4.528452
4879.101,4.538542
4884.887,4.545636
4890.672,4.554128
4896.458,4.562266
4902.243,4.56808
4908.028,4.576092
4913.814,4.576854
4919.6,4.575642
4925.385,4.571869
4931.17,4.573462
4936.956,4.56945
4942.742,4.562001
4948.527,4.541724
4954.313,4.500521
4960.098,4.450026
4965.883,4.42759
4971.669,4.444213
4977.455,4.460621
4983.24,4.473113
4989.025,4.496387
4994.811,4.524766
5000.597,4.553784
5006.382,4.568204
5012.167,4.582557
5017.953,4.580814
5023.738,4.589516
5029.524,4.605145
5035.31,4.611689
5041.095,4.616741
5046.88,4.61702
5052.666,4.609419
5058.451,4.595555
5064.237,4.590879
5070.022,4.59234
5075.808,4.592083
5081.593,4.595203
5087.379,4.584364
5093.165,4.577919
5098.95,4.575731
5104.735,4.579517
5110.521,4.587516
5116.307,4.593079
5122.092,4.604012
5127.877,4.606447
5133.663,4.61212
5139.448,4.606966
5145.234,4.597904
5151.02,4.590422
5156.805,4.586267
5162.59,4.579094
5168.376,4.582168
5174.161,4.579544
5179.947,4.576054
5185.732,4.577204
5191.518,4.575972
5197.303,4.588439
5203.089,4.58172
5208.874,4.589832
5214.66,4.575253
5220.445,4.578794
5226.231,4.598035
5232.016,4.593685
5237.802,4.594569
5243.587,4.611349
5249.373,4.60938
5255.158,4.617243
5260.944,4.615136
5266.729,4.606121
5272.515,4.598366
5278.3,4.602646
5284.086,4.605344
5289.871,4.614884
5295.657,4.594919
5301.442,4.593425
5307.228,4.593083
5313.013,4.58594
5318.799,4.610882
5324.584,4.629578
5330.37,4.631685
5336.155,4.634717
5341.94,4.605341
5347.726,4.581523
5353.512,4.567731
5359.297,4.519115
5365.083,4.502213
5370.868,4.474438
5376.654,4.475323
5382.439,4.452422
5388.225,4.434058
5394.01,4.429083
5399.796,4.388993
5405.581,4.36874
5411.367,4.360416
5417.152,4.305851
5422.938,4.291326
5428.723,4.292659
5434.509,4.278986
5440.294,4.277526
5446.08,4.266273
5451.865,4.248053
5457.65,4.242315
5463.436,4.23914
5469.222,4.231629
5475.007,4.23233
5480.792,4.203412
5486.578,4.194374
5492.363,4.201428
5498.149,4.190424
5503.935,4.190601
5509.72,4.197495
5515.505,4.200316
5521.291,4.20561
5527.077,4.201959
5532.862,4.19746
5538.647,4.1973
5544.433,4.193871
5550.219,4.192144
5556.004,4.191265
5561.79,4.198424
5567.575,4.208448
5573.36,4.227641
5579.146,4.241595
5584.932,4.257538
5590.717,4.26132
5596.502,4.254539
5602.288,4.238611
5608.073,4.223136
5613.859,4.198436
5619.645,4.186326
5625.43,4.164123
5631.215,4.144689
5637.001,4.129025
5642.786,4.111881
5648.572,4.082548
5654.357,4.049866
5660.143,4.028855
5665.929,4.027342
5671.714,4.034125
5677.5,4.04414
5683.285,4.060242
5689.07,4.075875
5694.856,4.094022
5700.642,4.114508
5706.427,4.136668
5712.212,4.154044
5717.998,4.159981
5723.783,4.13925
5729.569,4.099771
5735.354,4.077409
5741.14,4.066915
5746.925,4.052931
5752.711,4.033818
5758.496,4.024809
5764.282,4.017623
5770.067,4.012657
5775.853,4.01414
5781.638,4.015702
5787.424,4.018323
5793.209,4.019183
5798.995,4.025388
5804.78,4.028665
5810.566,4.030262
5816.352,4.044335
5822.137,4.047018
5827.922,4.064013
5833.708,4.080807
5839.493,4.095235
5845.279,4.120146
5851.064,4.161688
5856.85,4.207631
5862.635,4.285366
5868.421,4.377502
5874.206,4.493263
5879.992,4.623308
5885.777,4.757041
5891.563,4.87493
5897.348,4.956805
5903.134,5.037375
5908.919,5.12923
5914.705,5.269196
5920.49,5.444637
5926.276,5.638478
5932.061,5.82673
5937.847,6.005411
5943.632,6.156455
5949.418,6.299604
5955.203,6.432517
5960.989,6.569702
5966.774,6.715528
5972.56,6.856337
5978.345,6.984381
5984.131,7.100146
5989.916,7.217507
5995.702,7.318086
6001.487,7.422128
6007.272,7.513836
6013.058,7.612427
6018.844,7.696989
6024.629,7.781588
6030.415,7.860539
6036.2,7.929606
6041.985,7.992476
6047.771,8.0544
6053.557,8.106439
6059.342,8.160351
6065.128,8.207115
6070.913,8.250909
6076.698,8.291878
6082.484,8.322975
6088.27,8.359332
6094.055,8.376318
6099.841,8.386008
6105.626,8.403766
6111.412,8.426974
6117.197,8.460121
6122.982,8.497305
6128.768,8.537034
6134.554,8.583886
6140.339,8.629955
6146.125,8.666425
6151.91,8.716299
6157.695,8.753271
6163.481,8.792105
6169.267,8.829429
6175.052,8.870341
6180.837,8.895973
6186.623,8.925848
6192.408,8.949179
6198.194,8.976397
6203.979,8.994319
6209.765,9.018421
6215.551,9.032375
6221.336,9.056504
6227.121,9.071151
6232.907,9.084831
6238.692,9.093121
6244.478,9.107575
6250.264,9.114233
6256.049,9.119219
6261.834,9.128224
6267.62,9.138104
6273.405,9.14169
6279.191,9.146367
6284.977,9.157653
6290.762,9.162377
6296.547,9.165835
6302.333,9.174801
6308.118,9.168056
6313.904,9.173511
6319.689,9.171467
6325.475,9.167517
6331.26,9.155247
6337.046,9.14782
6342.831,9.130146
6348.617,9.114925
6354.402,9.093506
6360.188,9.076361
6365.974,9.048067
6371.759,9.002019
6377.544,8.971706
6383.33,8.957889
6389.115,8.94459
6394.901,8.931751
6400.687,8.911368
6406.472,8.865515
6412.257,8.812229
6418.043,8.773671
6423.828,8.742355
6429.614,8.727608
6435.399,8.702406
6441.185,8.658897
6446.97,8.598049
6452.756,8.526119
6458.541,8.450211
6464.327,8.326804
6470.112,8.141925
6475.897,7.936481
6481.684,7.813636
6487.469,7.820638
6493.254,7.881384
6499.04,7.941215
6504.825,8.007531
6510.61,8.051693
6516.396,8.094674
6522.182,8.128205
6527.967,8.153926
6533.753,8.181011
6539.538,8.196589
6545.324,8.213971
6551.109,8.221411
6556.895,8.237077
6562.68,8.249049
6568.466,8.271966
6574.251,8.294277
6580.037,8.308551
6585.822,8.321037
6591.607,8.326304
6597.393,8.33271
6603.179,8.330398
6608.964,8.32502
6614.75,8.324942
6620.535,8.315251
6626.32,8.309488
6632.106,8.293192
6637.892,8.276609
6643.677,8.258732
6649.463,8.237713
6655.248,8.220861
6661.034,8.191505
6666.819,8.167109
6672.604,8.135004
6678.39,8.106157
6684.176,8.078955
6689.961,8.044531
6695.747,8.009008
6701.532,7.969615
6707.317,7.927572
6713.103,7.881827
6718.889,7.848824
6724.674,7.806049
6730.459,7.765691
6736.245,7.728895
6742.03,7.687847
6747.816,7.645349
6753.602,7.606803
6759.387,7.566758
6765.173,7.522099
6770.958,7.471593
6776.743,7.4235
6782.529,7.356462
6788.314,7.291059
6794.1,7.211565
6799.886,7.139575
6805.671,7.060289
6811.457,6.990711
6817.242,6.917952
6823.027,6.836375
6828.813,6.757759
6834.599,6.69495
6840.384,6.653446
6846.169,6.625082
6851.955,6.578973
6857.74,6.537238
6863.526,6.498159
6869.312,6.455307
6875.097,6.412964
6880.882,6.351681
6886.668,6.302149
6892.453,6.241193
6898.239,6.196032
6904.024,6.154291
6909.81,6.1128
6915.596,6.069215
6921.381,6.016838
6927.166,5.967408
6932.952,5.897558
6938.737,5.818942
6944.523,5.753767
6950.309,5.705697
6956.094,5.693992
6961.879,5.684547
6967.665,5.682899
6973.45,5.680382
6979.236,5.670683
6985.021,5.660592
6990.807,5.641117
6996.592,5.621702
7002.378,5.59466
7008.163,5.554184
7013.949,5.529521
7019.734,5.493692
7025.52,5.481743
7031.305,5.478153
7037.091,5.49098
7042.876,5.483046
7048.662,5.444122
7054.447,5.363006
7060.232,5.287086
7066.019,5.276325
7071.804,5.367587
7077.589,5.467283
7083.375,5.559449
7089.16,5.627728
7094.946,5.685931
7100.731,5.738136
7106.517,5.824919
7112.302,5.889072
7118.088,5.986903
7123.873,6.02063
7129.659,6.047808
7135.444,6.034606
7141.229,5.977394
7147.015,5.885242
7152.801,5.748609
7158.586,5.529691
7164.372,5.245843
7170.157,5.042999
7175.942,5.039093
7181.729,5.197931
7187.514,5.35966
7193.299,5.554563
7199.085,5.729752
7204.87,5.937263
7210.655,6.094841
7216.441,6.251113
7222.227,6.414686
7228.012,6.599909
7233.798,6.765903
7239.583,6.906614
7245.369,7.055483
7251.154,7.196254
7256.939,7.34153
7262.725,7.50589
7268.511,7.640482
7274.296,7.796897
7280.082,7.939123
7285.867,8.07652
7291.652,8.217608
7297.438,8.354348
7303.224,8.48289
7309.009,8.633418
7314.794,8.757512
7320.58,8.874608
7326.365,8.993578
7332.151,9.052915
7337.937,9.142577
7343.722,9.196668
7349.508,9.236588
7355.293,9.325957
7361.079,9.382805
7366.864,9.481327
7372.649,9.535254
7378.435,9.619088
7384.221,9.681129
7390.006,9.744872
7395.792,9.786591
7401.577,9.823622
7407.362,9.851016
7413.148,9.888491
7418.934,9.910203
7424.719,9.919809
7430.504,9.937809
7436.29,9.959287
7442.075,9.965969
7447.861,9.974544
7453.646,9.992413
7459.432,10.00444
7465.218,10.00995
7471.003,10.0174
7476.788,10.02018
7482.574,10.02016
7488.359,10.02669
7494.145,10.02329
7499.931,10.01679
7505.716,10.01571
7511.501,10.0136
7517.287,10.00544
7523.072,10.00767
7528.858,10.00457
7534.644,9.992409
7540.429,9.987467
7546.214,9.972694
7552.0,9.964138
7557.785,9.949611
7563.571,9.945028
7569.356,9.929083
7575.142,9.921384
7580.927,9.91064
7586.713,9.90405
7592.498,9.881699
7598.284,9.873974
7604.069,9.847633
7609.854,9.838576
7615.641,9.817483
7621.426,9.787714
7627.211,9.77213
7632.997,9.755824
7638.782,9.725185
7644.568,9.705142
7650.354,9.696266
7656.139,9.655959
7661.924,9.651675
7667.71,9.636428
7673.495,9.60739
7679.281,9.593053
7685.066,9.574291
7690.852,9.566929
7696.637,9.553533
7702.423,9.543557
7708.208,9.529232
7713.994,9.509291
7719.779,9.490638
7725.564,9.47817
7731.35,9.462573
7737.136,9.454817
7742.921,9.433131
7748.707,9.425399
7754.492,9.395247
7760.277,9.378434
7766.063,9.361802
7771.849,9.33071
7777.634,9.319828
7783.42,9.314424
7789.205,9.298526
7794.991,9.293309
7800.776,9.27625
7806.562,9.243694
7812.347,9.228971
7818.133,9.214974
7823.918,9.198478
7829.704,9.171897
7835.489,9.154856
7841.274,9.130039
7847.06,9.102539
7852.846,9.073178
7858.631,9.04225
7864.417,9.013842
7870.202,8.985075
7875.987,8.947755
7881.773,8.910021
7887.559,8.877916
7893.344,8.837825
7899.13,8.799971
7904.915,8.757025
7910.7,8.722149
7916.486,8.680797
7922.271,8.629972
7928.057,8.588897
7933.843,8.545918
7939.628,8.495811
7945.414,8.443853
7951.199,8.381653
7956.984,8.333693
7962.77,8.268094
7968.556,8.205737
7974.341,8.151679
7980.126,8.092998
7985.912,8.027926
7991.697,7.969065
7997.483,7.907135
8003.269,7.832379
8009.054,7.761901
8014.839,7.6891
8020.625,7.621054
8026.41,7.540148
8032.196,7.461993
8037.981,7.369314
8043.767,7.300899
8049.553,7.209226
8055.338,7.118543
8061.124,7.032748
8066.909,6.940848
8072.694,6.860604
8078.48,6.760897
8084.266,6.666183
8090.051,6.573413
8095.836,6.476076
8101.622,6.371356
8107.407,6.264847
8113.192,6.155567
8118.979,6.061669
8124.764,5.944695
8130.55,5.830855
8136.335,5.722239
8142.12,5.623574
8147.906,5.513104
8153.691,5.404968
8159.477,5.298732
8165.263,5.180327
8171.048,5.08172
8176.833,4.996802
8182.619,4.908416
8188.404,4.839023
8194.189,4.759219
8199.976,4.715385
8205.761,4.671563
8211.546,4.649198
8217.332,4.631262
8223.117,4.628906
8228.902,4.622796
8234.688,4.615567
8240.474,4.632381
8246.259,4.63946
8252.045,4.662789
8257.83,4.663313
8263.616,4.695324
8269.401,4.721581
8275.187,4.771821
8280.973,4.793489
8286.758,4.850486
8292.543,4.918208
8298.329,4.970972
8304.114,5.03604
8309.899,5.092896
8315.686,5.153259
8321.471,5.221081
8327.256,5.27679
8333.042,5.346434
8338.827,5.421346
8344.612,5.489204
8350.398,5.587935
8356.184,5.664575
8361.969,5.741539
8367.755,5.834104
8373.54,5.895942
8379.325,5.972529
8385.111,6.03545
8390.896,6.101509
8396.683,6.137065
8402.468,6.178591
8408.253,6.213371
8414.039,6.218729
8419.824,6.224024
8425.609,6.267627
8431.396,6.318067
8437.181,6.411151
8442.966,6.510746
8448.752,6.608609
8454.537,6.718462
8460.322,6.819553
8466.108,6.897468
8471.894,6.99105
8477.679,7.077025
8483.465,7.163931
8489.25,7.255244
8495.035,7.324496
8500.821,7.390676
8506.606,7.442542
8512.392,7.484663
8518.178,7.516284
8523.963,7.562738
8529.748,7.594605
8535.534,7.605578
8541.319,7.615286
8547.105,7.559496
8552.891,7.477238
8558.676,7.415764
8564.462,7.363021
8570.247,7.442186
8576.032,7.537077
8581.818,7.664077
8587.604,7.800216
8593.389,7.93639
8599.175,8.100139
8604.96,8.238156
8610.745,8.3991
8616.531,8.530969
8622.316,8.674463
8628.102,8.796692
8633.888,8.904755
8639.673,9.004639
8645.458,9.101805
8651.244,9.173894
8657.029,9.238538
8662.814,9.324657
8668.601,9.377361
8674.386,9.44418
8680.172,9.482166
8685.957,9.551055
8691.742,9.620665
8697.528,9.703631
8703.313,9.781941
8709.099,9.861789
8714.885,9.935013
8720.67,10.02037
8726.455,10.10368
8732.241,10.18748
8738.026,10.26741
8743.812,10.33862
8749.598,10.39781
8755.383,10.47097
8761.168,10.53236
8766.954,10.5968
8772.739,10.63715
8778.524,10.67909
8784.311,10.72441
8790.096,10.75793
8795.881,10.80156
8801.667,10.83693
8807.452,10.86008
8813.237,10.89374
8819.023,10.92228
8824.809,10.93939
8830.595,10.96718
8836.38,10.95442
8842.165,10.99423
8847.951,10.97923
8853.736,10.99961
8859.521,11.00765
8865.308,11.02995
8871.093,11.03577
8876.878,11.03551
8882.664,11.04088
8888.449,11.03732
8894.234,11.03521
8900.021,11.04048
8905.806,11.0463
8911.591,11.03047
8917.377,11.03526
8923.162,11.03357
8928.947,11.0193
8934.733,11.03394
8940.519,11.0226
8946.304,11.0256
8952.09,11.01798
8957.875,11.02133
8963.661,11.00939
8969.446,11.03342
8975.231,11.02529
8981.018,11.05076
8986.803,11.03319
8992.588,11.042
8998.374,11.04544
9004.159,11.06235
9009.944,11.0512
9015.73,11.07375
9021.516,11.06959
9027.301,11.07917
9033.087,11.07171
9038.872,11.0761
9044.657,11.08881
9050.443,11.08684
9056.229,11.08727
9062.014,11.08856
9067.8,11.09926
9073.585,11.10255
9079.37,11.08945
9085.156,11.1213
9090.941,11.09729
9096.727,11.1068
9102.513,11.09847
9108.298,11.12683
9114.084,11.09401
9119.869,11.0877
9125.654,11.10868
9131.44,11.09818
9137.226,11.08993
9143.011,11.08549
9148.797,11.08006
9154.582,11.07857
9160.367,11.07996
9166.153,11.04666
9171.938,11.05068
9177.724,11.07226
9183.51,11.04253
9189.295,11.03608
9195.08,11.01733
9200.866,11.01871
9206.651,11.01871
9212.437,11.01395
9218.223,11.00714
9224.008,11.00877
9229.793,10.99216
9235.579,10.99738
9241.364,10.99585
9247.15,10.97939
9252.936,10.96476
9258.721,10.97422
9264.507,10.94259
9270.292,10.96098
9276.077,10.94287
9281.863,10.92079
9287.648,10.92223
9293.434,10.9303
9299.22,10.9258
9305.005,10.9393
9310.79,10.92698
9316.576,10.9469
9322.361,10.90868
9328.146,10.93201
9333.933,10.93028
9339.718,10.91096
9345.503,10.9142
9351.289,10.91467
9357.074,10.89053
9362.859,10.88444
9368.646,10.86904
9374.431,10.85827
9380.217,10.84864
9386.002,10.85298
9391.787,10.8186
9397.573,10.83208
9403.358,10.83167
9409.144,10.79831
9414.93,10.78346
9420.715,10.77171
9426.5,10.77323
9432.286,10.73833
9438.071,10.72657
9443.856,10.71216
9449.643,10.72253
9455.428,10.68275
9461.213,10.6586
9466.999,10.63947
9472.784,10.63311
9478.569,10.6176
9484.355,10.62269
9490.141,10.61598
9495.926,10.5915
9501.712,10.59865
9507.497,10.59283
9513.282,10.58977
9519.068,10.56944
9524.854,10.55229
9530.64,10.55239
9536.425,10.52964
9542.21,10.50476
9547.996,10.50422
9553.781,10.48897
9559.566,10.46322
9565.353,10.45984
9571.138,10.46188
9576.923,10.45342
9582.709,10.41418
9588.494,10.41905
9594.279,10.41524
9600.065,10.42651
9605.851,10.43944
9611.636,10.44115
9617.422,10.45727
9623.207,10.48043
9628.992,10.51865
9634.778,10.51379
9640.563,10.5175
9646.349,10.5458
9652.135,10.56458
9657.92,10.60971
9663.706,10.6216
9669.491,10.63722
9675.276,10.65931
9681.063,10.68638
9686.848,10.67965
9692.633,10.72415
9698.419,10.7572
9704.204,10.75083
9709.989,10.78326
9715.775,10.8301
9721.561,10.8318
9727.346,10.86209
9733.132,10.87821
9738.917,10.88444
9744.702,10.90014
9750.488,10.94187
9756.273,10.95803
9762.059,10.97661
9767.845,10.95099
9773.63,10.98854
9779.415,10.99133
9785.201,10.99584
9790.986,11.00078
9796.771,10.98688
9802.558,10.99362
9808.343,11.00655
9814.129,10.98314
9819.914,11.01225
9825.699,11.01724
9831.485,11.03005
9837.271,11.03755
9843.056,11.05609
9848.842,11.09801
9854.627,11.11609
9860.412,11.14926
9866.198,11.14236
9871.983,11.20815
9877.769,11.22223
9883.555,11.2177
9889.34,11.2724
9895.125,11.29161
9900.911,11.29417
9906.696,11.33965
9912.481,11.36637
9918.268,11.3639
9924.053,11.38809
9929.838,11.39642
9935.624,11.46936
9941.409,11.44392
9947.195,11.44603
9952.98,11.49618
9958.766,11.51024
9964.552,11.53255
9970.337,11.55423
9976.122,11.55008
9981.908,11.58534
9987.693,11.56948
9993.479,11.58932
9999.265,11.58432
10005.05,11.59231
10010.83,11.61065
10016.62,11.60925
10022.41,11.62077
10028.19,11.63713
10033.98,11.67584
10039.76,11.69063
10045.55,11.67964
10051.33,11.68888
10057.12,11.72686
10062.9,11.71043
10068.69,11.73263
10074.48,11.69106
10080.26,11.76475
10086.05,11.74249
10091.83,11.77848
10097.62,11.76595
10103.4,11.75627
10109.19,11.74195
10114.97,11.76116
10120.76,11.78514
10126.54,11.79695
10132.33,11.81392
10138.12,11.81424
10143.9,11.81225
10149.69,11.80315
10155.47,11.82564
10161.26,11.79006
10167.04,11.7966
10172.83,11.83522
10178.61,11.84327
10184.4,11.81105
10190.19,11.81032
10195.97,11.84238
10201.76,11.80413
10207.54,11.82749
10213.33,11.83432
10219.11,11.85285
10224.9,11.85779
10230.68,11.84107
10236.47,11.80854
10242.25,11.82067
10248.04,11.83098
10253.83,11.88282
10259.61,11.85437
10265.4,11.8526
10271.18,11.83427
10276.97,11.81443
10282.75,11.78985
10288.54,11.80392
10294.32,11.82064
10300.11,11.81244
10305.9,11.83947
10311.68,11.83999
10317.47,11.79734
10323.25,11.83989
10329.04,11.79606
10334.82,11.7994
10340.61,11.80591
10346.39,11.79306
10352.18,11.75603
10357.96,11.76577
10363.75,11.79701
10369.54,11.73306
10375.32,11.75737
10381.11,11.76873
10386.89,11.74679
10392.68,11.78392
10398.46,11.74478
10404.25,11.76357
10410.03,11.71139
10415.82,11.74592
10421.61,11.7372
10427.39,11.70815
10433.18,11.69727
10438.96,11.67125
10444.75,11.65662
10450.53,11.65509
10456.32,11.69302
10462.1,11.67122
10467.89,11.62651
10473.67,11.6578
10479.46,11.62349
10485.25,11.6207
10491.03,11.5658
10496.82,11.53325
10502.6,11.52228
10508.39,11.50667
10514.17,11.49166
10519.96,11.48371
10525.74,11.44564
10531.53,11.37862
10537.32,11.36091
10543.1,11.37749
10548.89,11.30575
10554.67,11.2674
10560.46,11.24665
10566.24,11.19167
10572.03,11.19494
10577.81,11.12494
10583.6,11.02432
10589.38,10.98826
10595.17,10.97503
10600.96,10.8821
10606.74,10.80663
10612.53,10.75926
10618.31,10.72027
10624.1,10.63277
10629.88,10.52338
10635.67,10.47176
10641.45,10.37456
10647.24,10.29337
10653.03,10.18822
10658.81,10.17484
10664.6,10.06755
10670.38,10.03488
10676.17,9.933244
10681.95,9.904881
10687.74,9.807337
10693.52,9.790442
10699.31,9.722177
10705.09,9.743249
10710.88,9.69865
10716.67,9.684947
10722.45,9.723072
10728.24,9.693563
10734.02,9.665792
10739.81,9.699176
10745.59,9.71364
10751.38,9.761497
10757.16,9.790678
10762.95,9.800812
10768.74,9.798782
10774.52,9.854737
10780.31,9.904957
10786.09,9.949284
10791.88,10.00355
10797.66,10.06362
10803.45,10.13582
10809.23,10.11503
10815.02,10.18698
10820.8,10.27508
10826.59,10.28868
10832.38,10.38462
10838.16,10.48075
10843.95,10.52535
10849.73,10.56213
10855.52,10.63729
10861.3,10.62482
10867.09,10.65877
10872.87,10.8073
10878.66,10.82228
10884.45,10.84366
10890.23,10.87365
10896.02,10.96174
10901.8,11.0176
10907.59,11.0544
10913.37,11.13727
10919.16,11.13897
10924.94,11.16035
10930.73,11.22664
10936.51,11.28656
10942.3,11.27356
10948.09,11.34452
10953.87,11.43489
10959.66,11.45314
10965.44,11.46218
10971.23,11.46573
10977.01,11.49881
10982.8,11.58048
10988.58,11.63694
10994.37,11.6649
11000.16,11.66888
11005.94,11.65686
11011.73,11.69379
11017.51,11.72373
11023.3,11.81319
11029.08,11.78935
11034.87,11.81509
11040.65,11.85475
11046.44,11.85745
11052.22,11.94184
11058.01,11.87515
11063.79,11.83945
11069.58,11.92127
11075.37,11.98412
11081.15,11.99061
11086.94,11.98818
11092.72,12.03394
11098.51,12.07388
11104.29,12.02997
11110.08,11.99974
11115.87,11.91528
11121.65,12.04101
11127.44,11.95773
11133.22,12.06834
11139.01,12.102
11144.79,12.1465
11150.58,12.05099
11156.36,12.1206
11162.15,12.1258
11167.93,12.074
11173.72,12.20642
11179.5,12.17488
11185.29,12.19578
11191.08,12.2272
11196.86,12.24454
11202.65,12.23651
11208.43,12.25517
11214.22,12.35597
11220.0,12.30664
11225.79,12.34765
11231.58,12.37953
11237.36,12.37959
11243.15,12.35
11248.93,12.32045
11254.72,12.39582
11260.5,12.46934
11266.29,12.38822
11272.07,12.54866
11277.86,12.42549
11283.64,12.47651
11289.43,12.42029
11295.21,12.54635
11301.0,12.45491
11306.79,12.45985
11312.57,12.60034
11318.36,12.51045
11324.14,12.55111
11329.93,12.67751
11335.71,12.55322
11341.5,12.57816
11347.28,12.57964
11353.07,12.47083
11358.86,12.56124
11364.64,12.68386
11370.43,12.66349
11376.21,12.55995
11382.0,12.65195
11387.78,12.6656
11393.57,12.67176
11399.35,12.63535
11405.14,12.67179
11410.92,12.61988
11416.71,12.61614
11422.5,12.81282
11428.28,12.71024
11434.07,12.75367
11439.85,12.76007
11445.64,12.72784
11451.42,12.77833
11457.21,12.82118
11462.99,12.76763
11468.78,12.76451
11474.57,12.7576
11480.35,12.78267
11486.14,12.74163
11491.92,12.74068
11497.71,12.76727
11503.49,12.78396
11509.28,12.81683
11515.06,12.78904
11520.85,12.84672
11526.63,12.80629
11532.42,12.89832
11538.21,12.87352
11543.99,12.94856
11549.78,12.86595
11555.56,12.83704
11561.35,12.91437
11567.13,12.97031
11572.92,12.86747
11578.7,12.9269
11584.49,12.8304
11590.28,12.98113
11596.06,12.8634
11601.85,12.98699
11607.63,13.01956
11613.42,12.90777
11619.2,12.88581
11624.99,13.00975
11630.77,12.87797
11636.56,13.05215
11642.34,12.9011
11648.13,12.96782
11653.92,13.04243
11659.7,12.92764
11665.49,12.94113
11671.27,12.94501
11677.06,12.83688
11682.84,12.92638
11688.63,13.00794
11694.41,12.96403
11700.2,12.8693
11705.99,13.00568
11711.77,12.88922
11717.56,12.89368
11723.34,12.99244
11729.13,12.8898
11734.91,13.12395
11740.7,13.00348
11746.48,12.9964
11752.27,12.947
11758.05,13.02546
11763.84,12.94715
11769.63,13.04282
11775.41,13.00987
11781.2,12.90376
11786.98,12.97618
11792.77,12.93938
11798.55,12.9607
11804.34,12.85946
11810.12,12.81073
11815.91,13.00249
11821.7,12.87025
11827.48,12.89368
11833.27,12.83631
11839.05,12.88999
11844.84,12.84853
11850.62,12.89923
11856.41,12.7729
11862.19,12.90647
11867.98,12.84379
11873.76,12.83915
11879.55,12.7621
11885.34,12.74201
11891.12,12.78215
11896.91,12.77621
11902.69,12.82425
11908.48,12.82934
11914.26,12.77615
11920.05,12.76372
11925.83,12.61348
11931.62,12.87735
11937.41,12.74607
11943.19,12.67252
11948.98,12.54337
11954.76,12.65595
11960.55,12.59618
11966.33,12.58209
11972.12,12.62369
11977.9,12.63468
11983.69,12.63567
11989.47,12.62355
11995.26,12.68935
11999.12,12.6371