File: Data/NIR/S0024LDPE_3.csv
Wavenumber,Intensity
3999.706,3.582233
4005.491,3.590552
4011.277,3.593305
4017.062,3.598694
4022.848,3.59707
4028.633,3.601219
4034.419,3.609796
4040.204,3.610385
4045.99,3.614784
4051.775,3.616444
4057.561,3.615218
4063.346,3.620224
4069.132,3.616589
4074.917,3.629435
4080.703,3.625321
4086.488,3.633559
4092.274,3.626272
4098.059,3.631442
4103.845,3.63468
4109.63,3.633589
4115.416,3.639132
4121.201,3.633203
4126.987,3.637153
4132.772,3.641106
4138.558,3.644127
4144.343,3.643766
4150.129,3.642415
4155.914,3.648504
4161.7,3.655867
4167.485,3.653955
4173.271,3.6606
4179.056,3.664529
4184.842,3.672991
4190.627,3.67346
4196.413,3.686348
4202.198,3.696364
4207.983,3.705952
4213.769,3.71261
4219.555,3.721684
4225.34,3.725237
4231.125,3.733524
4236.911,3.737519
4242.697,3.739429
4248.482,3.73712
4254.268,3.734847
4260.053,3.748481
4265.838,3.760185
4271.624,3.763103
4277.41,3.766647
4283.195,3.769498
4288.98,3.774818
4294.766,3.774768
4300.552,3.78009
4306.337,3.776971
4312.123,3.776318
4317.908,3.763076
4323.693,3.753928
4329.479,3.761743
4335.265,3.769127
4341.05,3.774207
4346.835,3.780797
4352.621,3.784545
4358.407,3.789477
4364.192,3.793456
4369.978,3.792875
4375.763,3.795091
4381.548,3.799314
4387.334,3.799005
4393.12,3.802672
4398.905,3.805001
4404.69,3.813967
4410.476,3.826775
4416.262,3.856305
4422.047,3.886823
4427.833,3.930549
4433.618,3.968976
4439.403,4.021434
4445.189,4.077008
4450.975,4.141477
4456.76,4.209857
4462.545,4.272802
4468.331,4.335633
4474.116,4.392981
4479.902,4.454525
4485.688,4.515502
4491.473,4.58478
4497.258,4.650426
4503.044,4.719577
4508.83,4.785981
4514.615,4.86085
4520.4,4.924021
4526.186,4.992517
4531.971,5.061227
4537.757,5.13099
4543.542,5.203859
4549.328,5.278968
4555.113,5.351473
4560.899,5.431431
4566.685,5.498624
4572.47,5.553775
4578.255,5.610333
4584.041,5.65971
4589.826,5.701972
4595.612,5.737059
4601.397,5.766966
4607.183,5.796349
4612.968,5.81948
4618.754,5.851274
4624.539,5.886064
4630.325,5.91458
4636.11,5.92949
4641.896,5.943089
4647.681,5.944514
4653.467,5.925426
4659.252,5.882941
4665.038,5.830557
4670.823,5.848917
4676.609,5.927397
4682.394,5.992888
4688.18,6.033641
4693.965,6.04845
4699.751,6.053651
4705.536,6.052117
4711.322,6.039738
4717.107,6.01615
4722.893,5.980208
4728.678,5.94929
4734.464,5.929601
4740.249,5.92476
4746.035,5.902688
4751.82,5.883174
4757.605,5.859403
4763.391,5.830288
4769.177,5.783717
4774.962,5.733326
4780.748,5.702032
4786.533,5.688614
4792.319,5.672373
4798.104,5.654952
4803.89,5.622556
4809.675,5.586456
4815.46,5.536687
4821.246,5.489919
4827.032,5.451637
4832.817,5.41305
4838.603,5.370509
4844.388,5.315633
4850.174,5.254247
4855.959,5.197962
4861.745,5.154626
4867.53,5.130058
4873.315,5.130409
4879.101,5.142313
4884.887,5.159425
4890.672,5.178993
4896.458,5.191257
4902.243,5.205439
4908.028,5.215318
4913.814,5.21848
4919.6,5.216599
4925.385,5.214544
4931.17,5.208812
4936.956,5.206642
4942.742,5.186264
4948.527,5.150169
4954.313,5.070798
4960.098,4.960835
4965.883,4.919693
4971.669,4.953791
4977.455,4.977058
4983.24,5.011591
4989.025,5.051799
4994.811,5.104467
5000.597,5.161012
5006.382,5.201606
5012.167,5.214209
5017.953,5.221143
5023.738,5.239516
5029.524,5.26368
5035.31,5.272505
5041.095,5.278024
5046.88,5.27679
5052.666,5.265895
5058.451,5.239838
5064.237,5.224762
5070.022,5.229578
5075.808,5.225398
5081.593,5.221257
5087.379,5.206803
5093.165,5.197842
5098.95,5.189526
5104.735,5.193882
5110.521,5.208784
5116.307,5.218333
5122.092,5.231308
5127.877,5.245445
5133.663,5.254926
5139.448,5.246644
5145.234,5.227101
5151.02,5.204774
5156.805,5.196323
5162.59,5.187664
5168.376,5.185467
5174.161,5.179924
5179.947,5.173093
5185.732,5.171897
5191.518,5.16579
5197.303,5.184583
5203.089,5.181199
5208.874,5.18896
5214.66,5.16937
5220.445,5.174885
5226.231,5.193018
5232.016,5.198246
5237.802,5.19696
5243.587,5.222283
5249.373,5.229168
5255.158,5.231529
5260.944,5.232166
5266.729,5.225596
5272.515,5.21486
5278.3,5.213367
5284.086,5.226092
5289.871,5.23385
5295.657,5.205957
5301.442,5.188204
5307.228,5.183413
5313.013,5.180295
5318.799,5.233005
5324.584,5.259839
5330.37,5.270026
5336.155,5.260262
5341.94,5.212308
5347.726,5.159994
5353.512,5.121483
5359.297,5.047453
5365.083,5.013047
5370.868,4.964638
5376.654,4.94349
5382.439,4.908557
5388.225,4.874569
5394.01,4.849263
5399.796,4.787151
5405.581,4.739448
5411.367,4.695675
5417.152,4.608263
5422.938,4.576167
5428.723,4.572638
5434.509,4.546715
5440.294,4.536843
5446.08,4.517796
5451.865,4.489263
5457.65,4.483735
5463.436,4.468788
5469.222,4.449646
5475.007,4.439007
5480.792,4.394918
5486.578,4.374655
5492.363,4.372845
5498.149,4.363015
5503.935,4.370188
5509.72,4.379149
5515.505,4.389016
5521.291,4.393625
5527.077,4.386399
5532.862,4.387067
5538.647,4.383392
5544.433,4.370766
5550.219,4.366199
5556.004,4.367228
5561.79,4.379803
5567.575,4.406672
5573.36,4.438207
5579.146,4.475896
5584.932,4.503594
5590.717,4.511294
5596.502,4.498108
5602.288,4.468833
5608.073,4.426532
5613.859,4.387566
5619.645,4.346102
5625.43,4.311395
5631.215,4.275866
5637.001,4.23863
5642.786,4.192365
5648.572,4.126974
5654.357,4.063622
5660.143,4.028884
5665.929,4.02398
5671.714,4.041987
5677.5,4.066225
5683.285,4.087908
5689.07,4.114932
5694.856,4.149126
5700.642,4.200928
5706.427,4.25065
5712.212,4.285222
5717.998,4.289732
5723.783,4.242342
5729.569,4.159962
5735.354,4.130683
5741.14,4.108448
5746.925,4.066335
5752.711,4.037528
5758.496,4.018863
5764.282,4.008775
5770.067,4.003921
5775.853,4.002205
5781.638,4.006478
5787.424,4.010882
5793.209,4.013459
5798.995,4.017739
5804.78,4.022933
5810.566,4.030126
5816.352,4.042539
5822.137,4.059902
5827.922,4.078758
5833.708,4.107111
5839.493,4.147366
5845.279,4.198532
5851.064,4.279078
5856.85,4.388931
5862.635,4.54029
5868.421,4.732632
5874.206,4.957538
5879.992,5.213015
5885.777,5.464047
5891.563,5.680042
5897.348,5.829247
5903.134,5.961391
5908.919,6.131798
5914.705,6.365482
5920.49,6.660639
5926.276,6.985352
5932.061,7.299428
5937.847,7.57699
5943.632,7.820677
5949.418,8.033468
5955.203,8.238727
5960.989,8.447955
5966.774,8.664734
5972.56,8.866978
5978.345,9.056827
5984.131,9.229064
5989.916,9.391895
5995.702,9.539743
6001.487,9.678694
6007.272,9.815972
6013.058,9.947288
6018.844,10.07052
6024.629,10.19093
6030.415,10.28563
6036.2,10.38409
6041.985,10.4711
6047.771,10.55452
6053.557,10.63139
6059.342,10.69881
6065.128,10.75802
6070.913,10.81841
6076.698,10.8636
6082.484,10.91611
6088.27,10.95398
6094.055,10.98311
6099.841,10.99952
6105.626,11.01302
6111.412,11.03888
6117.197,11.08173
6122.982,11.13126
6128.768,11.19238
6134.554,11.24883
6140.339,11.30781
6146.125,11.3598
6151.91,11.41037
6157.695,11.46691
6163.481,11.5163
6169.267,11.56755
6175.052,11.61218
6180.837,11.65429
6186.623,11.69111
6192.408,11.71716
6198.194,11.74757
6203.979,11.77457
6209.765,11.80232
6215.551,11.82908
6221.336,11.84376
6227.121,11.86394
6232.907,11.89235
6238.692,11.89891
6244.478,11.90975
6250.264,11.92175
6256.049,11.9275
6261.834,11.93507
6267.62,11.94344
6273.405,11.9545
6279.191,11.96121
6284.977,11.96674
6290.762,11.97139
6296.547,11.97819
6302.333,11.981
6308.118,11.98471
6313.904,11.98769
6319.689,11.9836
6325.475,11.97994
6331.26,11.96039
6337.046,11.94492
6342.831,11.92819
6348.617,11.90718
6354.402,11.87592
6360.188,11.85165
6365.974,11.81369
6371.759,11.76459
6377.544,11.71876
6383.33,11.69681
6389.115,11.68135
6394.901,11.66348
6400.687,11.62916
6406.472,11.57127
6412.257,11.50632
6418.043,11.45413
6423.828,11.42026
6429.614,11.38945
6435.399,11.35758
6441.185,11.29648
6446.97,11.22192
6452.756,11.12928
6458.541,11.01391
6464.327,10.8499
6470.112,10.60583
6475.897,10.32714
6481.684,10.16373
6487.469,10.16931
6493.254,10.25266
6499.04,10.33498
6504.825,10.41227
6510.61,10.48413
6516.396,10.52908
6522.182,10.57575
6527.967,10.61455
6533.753,10.64148
6539.538,10.66511
6545.324,10.68733
6551.109,10.70404
6556.895,10.72286
6562.68,10.74117
6568.466,10.77251
6574.251,10.80137
6580.037,10.82504
6585.822,10.83121
6591.607,10.84137
6597.393,10.84327
6603.179,10.84346
6608.964,10.83629
6614.75,10.82931
6620.535,10.8184
6626.32,10.80416
6632.106,10.78337
6637.892,10.76423
6643.677,10.7382
6649.463,10.71167
6655.248,10.67968
6661.034,10.64957
6666.819,10.60589
6672.604,10.58251
6678.39,10.53798
6684.176,10.49615
6689.961,10.44872
6695.747,10.39979
6701.532,10.3465
6707.317,10.28985
6713.103,10.22897
6718.889,10.16624
6724.674,10.11804
6730.459,10.06058
6736.245,10.00613
6742.03,9.951894
6747.816,9.893948
6753.602,9.841815
6759.387,9.780106
6765.173,9.729918
6770.958,9.654687
6776.743,9.579621
6782.529,9.483403
6788.314,9.394097
6794.1,9.287709
6799.886,9.176565
6805.671,9.067135
6811.457,8.968911
6817.242,8.853486
6823.027,8.739079
6828.813,8.627687
6834.599,8.530766
6840.384,8.466699
6846.169,8.40557
6851.955,8.361025
6857.74,8.299308
6863.526,8.242005
6869.312,8.175743
6875.097,8.10781
6880.882,8.026242
6886.668,7.940021
6892.453,7.853598
6898.239,7.769982
6904.024,7.710617
6909.81,7.652748
6915.596,7.588184
6921.381,7.513095
6927.166,7.422871
6932.952,7.310047
6938.737,7.192426
6944.523,7.080253
6950.309,7.007567
6956.094,6.981791
6961.879,6.975386
6967.665,6.967031
6973.45,6.967867
6979.236,6.95383
6985.021,6.932248
6990.807,6.909504
6996.592,6.867839
7002.378,6.830201
7008.163,6.770681
7013.949,6.714577
7019.734,6.665491
7025.52,6.643175
7031.305,6.657417
7037.091,6.660736
7042.876,6.649379
7048.662,6.579193
7054.447,6.454393
7060.232,6.324369
7066.019,6.322784
7071.804,6.44996
7077.589,6.618838
7083.375,6.773004
7089.16,6.873965
7094.946,6.977864
7100.731,7.04971
7106.517,7.191306
7112.302,7.305274
7118.088,7.437041
7123.873,7.506643
7129.659,7.534474
7135.444,7.505585
7141.229,7.425503
7147.015,7.281741
7152.801,7.064292
7158.586,6.720365
7164.372,6.239668
7170.157,5.890084
7175.942,5.887629
7181.729,6.160595
7187.514,6.438538
7193.299,6.748597
7199.085,7.03606
7204.87,7.342328
7210.655,7.594558
7216.441,7.840675
7222.227,8.08598
7228.012,8.348581
7233.798,8.595365
7239.583,8.804776
7245.369,9.007135
7251.154,9.220261
7256.939,9.416417
7262.725,9.623802
7268.511,9.825238
7274.296,10.0311
7280.082,10.22112
7285.867,10.41804
7291.652,10.60317
7297.438,10.78872
7303.224,10.95012
7309.009,11.14969
7314.794,11.30935
7320.58,11.45637
7326.365,11.61512
7332.151,11.67622
7337.937,11.79485
7343.722,11.86448
7349.508,11.91377
7355.293,12.03076
7361.079,12.10872
7366.864,12.21424
7372.649,12.29534
7378.435,12.39646
7384.221,12.48727
7390.006,12.55607
7395.792,12.60131
7401.577,12.64835
7407.362,12.68778
7413.148,12.71913
7418.934,12.75105
7424.719,12.76227
7430.504,12.7871
7436.29,12.80008
7442.075,12.81618
7447.861,12.834
7453.646,12.8456
7459.432,12.85942
7465.218,12.86874
7471.003,12.87474
7476.788,12.8784
7482.574,12.88284
7488.359,12.88307
7494.145,12.87691
7499.931,12.87447
7505.716,12.86614
7511.501,12.86144
7517.287,12.86253
7523.072,12.85536
7528.858,12.84295
7534.644,12.84155
7540.429,12.82629
7546.214,12.81304
7552.0,12.8047
7557.785,12.79189
7563.571,12.7793
7569.356,12.7615
7575.142,12.74983
7580.927,12.73235
7586.713,12.71325
7592.498,12.69839
7598.284,12.6695
7604.069,12.65714
7609.854,12.64362
7615.641,12.61415
7621.426,12.58766
7627.211,12.5531
7632.997,12.52826
7638.782,12.49376
7644.568,12.46503
7650.354,12.44508
7656.139,12.42162
7661.924,12.39619
7667.71,12.36508
7673.495,12.34035
7679.281,12.32168
7685.066,12.30482
7690.852,12.29145
7696.637,12.28002
7702.423,12.25086
7708.208,12.23384
7713.994,12.21339
7719.779,12.1928
7725.564,12.17298
7731.35,12.14318
7737.136,12.1346
7742.921,12.11028
7748.707,12.09723
7754.492,12.06959
7760.277,12.0407
7766.063,12.01653
7771.849,11.99887
7777.634,11.97681
7783.42,11.96678
7789.205,11.93799
7794.991,11.92873
7800.776,11.90242
7806.562,11.87243
7812.347,11.84488
7818.133,11.8242
7823.918,11.79794
7829.704,11.77485
7835.489,11.73937
7841.274,11.70933
7847.06,11.67391
7852.846,11.63633
7858.631,11.59983
7864.417,11.56165
7870.202,11.52158
7875.987,11.47576
7881.773,11.42304
7887.559,11.38877
7893.344,11.3405
7899.13,11.29547
7904.915,11.23695
7910.7,11.17619
7916.486,11.12442
7922.271,11.06559
7928.057,11.0081
7933.843,10.94501
7939.628,10.87093
7945.414,10.80632
7951.199,10.73891
7956.984,10.66781
7962.77,10.58482
7968.556,10.51113
7974.341,10.43262
7980.126,10.35208
7985.912,10.27076
7991.697,10.17068
7997.483,10.09477
8003.269,9.993515
8009.054,9.906382
8014.839,9.804976
8020.625,9.691416
8026.41,9.59306
8032.196,9.481055
8037.981,9.381937
8043.767,9.268435
8049.553,9.131582
8055.338,9.013371
8061.124,8.892449
8066.909,8.761591
8072.694,8.635732
8078.48,8.490949
8084.266,8.354737
8090.051,8.214988
8095.836,8.073597
8101.622,7.929996
8107.407,7.767214
8113.192,7.614944
8118.979,7.446527
8124.764,7.285591
8130.55,7.114384
8136.335,6.941493
8142.12,6.759468
8147.906,6.584066
8153.691,6.408269
8159.477,6.246755
8165.263,6.063714
8171.048,5.895539
8176.833,5.726745
8182.619,5.582588
8188.404,5.456147
8194.189,5.34231
8199.976,5.249596
8205.761,5.174598
8211.546,5.115422
8217.332,5.084234
8223.117,5.073199
8228.902,5.06746
8234.688,5.075285
8240.474,5.087792
8246.259,5.089019
8252.045,5.112972
8257.83,5.144123
8263.616,5.195283
8269.401,5.241713
8275.187,5.313985
8280.973,5.383461
8286.758,5.476119
8292.543,5.587368
8298.329,5.687106
8304.114,5.789325
8309.899,5.896526
8315.686,6.008678
8321.471,6.11331
8327.256,6.224833
8333.042,6.327356
8338.827,6.441913
8344.612,6.56209
8350.398,6.704968
8356.184,6.822888
8361.969,6.946267
8367.755,7.074329
8373.54,7.184048
8379.325,7.294741
8385.111,7.394816
8390.896,7.494112
8396.683,7.557487
8402.468,7.59974
8408.253,7.636237
8414.039,7.65874
8419.824,7.693625
8425.609,7.72624
8431.396,7.826675
8437.181,7.931667
8442.966,8.087835
8448.752,8.249771
8454.537,8.399194
8460.322,8.539696
8466.108,8.652581
8471.894,8.775054
8477.679,8.907996
8483.465,9.025563
8489.25,9.15895
8495.035,9.25228
8500.821,9.332294
8506.606,9.404117
8512.392,9.45392
8518.178,9.517635
8523.963,9.586428
8529.748,9.624636
8535.534,9.635219
8541.319,9.615172
8547.105,9.565984
8552.891,9.462504
8558.676,9.347716
8564.462,9.305547
8570.247,9.393108
8576.032,9.53434
8581.818,9.690876
8587.604,9.869273
8593.389,10.0878
8599.175,10.26753
8604.96,10.47102
8610.745,10.67146
8616.531,10.86513
8622.316,11.04087
8628.102,11.20334
8633.888,11.33446
8639.673,11.45885
8645.458,11.57906
8651.244,11.68691
8657.029,11.77612
8662.814,11.8578
8668.601,11.92711
8674.386,12.00723
8680.172,12.08179
8685.957,12.15325
8691.742,12.23372
8697.528,12.33834
8703.313,12.40892
8709.099,12.52602
8714.885,12.63434
8720.67,12.7275
8726.455,12.8344
8732.241,12.941
8738.026,13.02484
8743.812,13.11507
8749.598,13.1861
8755.383,13.27864
8761.168,13.34357
8766.954,13.39793
8772.739,13.47218
8778.524,13.52237
8784.311,13.5715
8790.096,13.6352
8795.881,13.64986
8801.667,13.71271
8807.452,13.74634
8813.237,13.79165
8819.023,13.7956
8824.809,13.8264
8830.595,13.83341
8836.38,13.85999
8842.165,13.87253
8847.951,13.88658
8853.736,13.8986
8859.521,13.89821
8865.308,13.91985
8871.093,13.92203
8876.878,13.92882
8882.664,13.92366
8888.449,13.9238
8894.234,13.9303
8900.021,13.94794
8905.806,13.93447
8911.591,13.93002
8917.377,13.92649
8923.162,13.93211
8928.947,13.92192
8934.733,13.9066
8940.519,13.9089
8946.304,13.90682
8952.09,13.93054
8957.875,13.90255
8963.661,13.90848
8969.446,13.90595
8975.231,13.90737
8981.018,13.91949
8986.803,13.9217
8992.588,13.92081
8998.374,13.92616
9004.159,13.92609
9009.944,13.93138
9015.73,13.94985
9021.516,13.9421
9027.301,13.95603
9033.087,13.95546
9038.872,13.94586
9044.657,13.95868
9050.443,13.97206
9056.229,13.95385
9062.014,13.98309
9067.8,13.9635
9073.585,13.98211
9079.37,13.97269
9085.156,13.98702
9090.941,13.99156
9096.727,13.97093
9102.513,13.98074
9108.298,13.97523
9114.084,13.95111
9119.869,13.97588
9125.654,13.94781
9131.44,13.95269
9137.226,13.95622
9143.011,13.93198
9148.797,13.93422
9154.582,13.94769
9160.367,13.93674
9166.153,13.91168
9171.938,13.90201
9177.724,13.91823
9183.51,13.87991
9189.295,13.88128
9195.08,13.87135
9200.866,13.8589
9206.651,13.84552
9212.437,13.85287
9218.223,13.82563
9224.008,13.82223
9229.793,13.82234
9235.579,13.80938
9241.364,13.81607
9247.15,13.80631
9252.936,13.79441
9258.721,13.78901
9264.507,13.78049
9270.292,13.76698
9276.077,13.75867
9281.863,13.75781
9287.648,13.72306
9293.434,13.74716
9299.22,13.74097
9305.005,13.73274
9310.79,13.73908
9316.576,13.73686
9322.361,13.73001
9328.146,13.72459
9333.933,13.71727
9339.718,13.73428
9345.503,13.72008
9351.289,13.72055
9357.074,13.67296
9362.859,13.68401
9368.646,13.66241
9374.431,13.6427
9380.217,13.63852
9386.002,13.62772
9391.787,13.60443
9397.573,13.60112
9403.358,13.56729
9409.144,13.55185
9414.93,13.56426
9420.715,13.53387
9426.5,13.50265
9432.286,13.48298
9438.071,13.47526
9443.856,13.45128
9449.643,13.43153
9455.428,13.42501
9461.213,13.39845
9466.999,13.35939
9472.784,13.34693
9478.569,13.33372
9484.355,13.34085
9490.141,13.29279
9495.926,13.29189
9501.712,13.28168
9507.497,13.2802
9513.282,13.26177
9519.068,13.26579
9524.854,13.24415
9530.64,13.23197
9536.425,13.21899
9542.21,13.20972
9547.996,13.17755
9553.781,13.17128
9559.566,13.15204
9565.353,13.12156
9571.138,13.12134
9576.923,13.11842
9582.709,13.072
9588.494,13.08219
9594.279,13.07428
9600.065,13.08479
9605.851,13.09352
9611.636,13.11617
9617.422,13.13649
9623.207,13.12371
9628.992,13.17143
9634.778,13.16994
9640.563,13.1961
9646.349,13.23641
9652.135,13.26195
9657.92,13.29598
9663.706,13.30838
9669.491,13.35223
9675.276,13.3745
9681.063,13.37073
9686.848,13.40585
9692.633,13.43643
9698.419,13.45425
9704.204,13.48078
9709.989,13.49937
9715.775,13.57662
9721.561,13.57422
9727.346,13.58973
9733.132,13.61267
9738.917,13.66018
9744.702,13.66563
9750.488,13.69197
9756.273,13.72344
9762.059,13.71264
9767.845,13.70264
9773.63,13.72683
9779.415,13.74165
9785.201,13.73125
9790.986,13.76105
9796.771,13.76264
9802.558,13.75041
9808.343,13.75729
9814.129,13.72882
9819.914,13.76634
9825.699,13.75927
9831.485,13.7766
9837.271,13.79886
9843.056,13.81194
9848.842,13.81872
9854.627,13.8705
9860.412,13.90631
9866.198,13.93421
9871.983,13.95925
9877.769,13.98586
9883.555,14.02045
9889.34,14.09086
9895.125,14.09592
9900.911,14.08736
9906.696,14.15907
9912.481,14.15675
9918.268,14.18048
9924.053,14.19726
9929.838,14.2195
9935.624,14.23926
9941.409,14.27591
9947.195,14.30008
9952.98,14.30672
9958.766,14.3514
9964.552,14.3589
9970.337,14.37919
9976.122,14.37013
9981.908,14.38122
9987.693,14.41014
9993.479,14.44407
9999.265,14.43263
10005.05,14.43399
10010.83,14.47138
10016.62,14.46842
10022.41,14.46292
10028.19,14.47628
10033.98,14.49824
10039.76,14.51834
10045.55,14.55969
10051.33,14.54618
10057.12,14.58756
10062.9,14.56799
10068.69,14.57965
10074.48,14.60621
10080.26,14.59131
10086.05,14.61908
10091.83,14.60727
10097.62,14.60604
10103.4,14.62421
10109.19,14.60227
10114.97,14.59632
10120.76,14.63936
10126.54,14.65109
10132.33,14.64819
10138.12,14.66731
10143.9,14.67306
10149.69,14.66374
10155.47,14.64646
10161.26,14.65285
10167.04,14.66433
10172.83,14.67382
10178.61,14.63451
10184.4,14.67099
10190.19,14.66768
10195.97,14.68413
10201.76,14.64628
10207.54,14.66419
10213.33,14.67372
10219.11,14.66989
10224.9,14.6978
10230.68,14.67159
10236.47,14.69025
10242.25,14.64243
10248.04,14.61769
10253.83,14.66993
10259.61,14.65405
10265.4,14.67794
10271.18,14.65855
10276.97,14.63709
10282.75,14.63741
10288.54,14.62706
10294.32,14.65677
10300.11,14.6823
10305.9,14.62425
10311.68,14.60994
10317.47,14.61472
10323.25,14.63393
10329.04,14.61021
10334.82,14.60781
10340.61,14.62232
10346.39,14.59291
10352.18,14.60204
10357.96,14.63544
10363.75,14.62868
10369.54,14.59461
10375.32,14.56399
10381.11,14.5837
10386.89,14.56075
10392.68,14.54095
10398.46,14.52458
10404.25,14.56202
10410.03,14.50348
10415.82,14.49151
10421.61,14.51006
10427.39,14.51055
10433.18,14.46054
10438.96,14.45929
10444.75,14.52032
10450.53,14.43706
10456.32,14.44632
10462.1,14.43418
10467.89,14.38988
10473.67,14.42028
10479.46,14.38398
10485.25,14.35796
10491.03,14.36758
10496.82,14.30098
10502.6,14.29137
10508.39,14.24762
10514.17,14.20979
10519.96,14.21605
10525.74,14.1569
10531.53,14.14978
10537.32,14.06753
10543.1,14.05729
10548.89,14.04179
10554.67,13.95827
10560.46,13.90141
10566.24,13.87262
10572.03,13.82573
10577.81,13.69869
10583.6,13.67077
10589.38,13.62339
10595.17,13.54449
10600.96,13.46407
10606.74,13.43321
10612.53,13.33946
10618.31,13.2018
10624.1,13.14426
10629.88,13.03392
10635.67,12.8778
10641.45,12.88635
10647.24,12.74812
10653.03,12.65618
10658.81,12.56995
10664.6,12.51611
10670.38,12.45674
10676.17,12.29204
10681.95,12.26338
10687.74,12.13447
10693.52,12.15673
10699.31,12.06089
10705.09,12.10199
10710.88,12.04664
10716.67,11.95444
10722.45,11.98159
10728.24,11.95566
10734.02,11.99204
10739.81,11.98603
10745.59,12.02613
10751.38,12.04201
10757.16,12.11154
10762.95,12.13767
10768.74,12.15632
10774.52,12.18189
10780.31,12.24203
10786.09,12.31682
10791.88,12.35491
10797.66,12.39767
10803.45,12.47607
10809.23,12.59775
10815.02,12.63221
10820.8,12.69356
10826.59,12.71795
10832.38,12.80273
10838.16,12.94708
10843.95,12.97181
10849.73,13.02015
10855.52,13.05226
10861.3,13.19378
10867.09,13.21521
10872.87,13.27157
10878.66,13.3396
10884.45,13.42877
10890.23,13.49304
10896.02,13.48324
10901.8,13.58484
10907.59,13.62912
10913.37,13.7053
10919.16,13.7508
10924.94,13.80049
10930.73,13.81964
10936.51,13.87458
10942.3,13.87798
10948.09,13.94032
10953.87,13.96881
10959.66,14.04355
10965.44,14.15699
10971.23,14.19303
10977.01,14.13316
10982.8,14.2306
10988.58,14.17825
10994.37,14.29267
11000.16,14.32645
11005.94,14.39061
11011.73,14.41556
11017.51,14.48013
11023.3,14.47179
11029.08,14.57725
11034.87,14.47676
11040.65,14.5965
11046.44,14.52167
11052.22,14.58351
11058.01,14.62064
11063.79,14.6195
11069.58,14.64907
11075.37,14.67977
11081.15,14.66172
11086.94,14.65251
11092.72,14.63971
11098.51,14.747
11104.29,14.71434
11110.08,14.68813
11115.87,14.73368
11121.65,14.71684
11127.44,14.76
11133.22,14.66464
11139.01,14.69602
11144.79,14.80097
11150.58,14.81049
11156.36,14.81046
11162.15,14.88645
11167.93,14.81907
11173.72,14.84845
11179.5,14.84077
11185.29,14.90873
11191.08,14.8934
11196.86,14.97597
11202.65,14.95379
11208.43,15.01537
11214.22,15.08743
11220.0,15.04567
11225.79,15.06039
11231.58,15.09082
11237.36,15.10799
11243.15,15.14189
11248.93,15.16556
11254.72,15.15701
11260.5,15.25152
11266.29,15.22621
11272.07,15.24174
11277.86,15.23148
11283.64,15.30164
11289.43,15.3159
11295.21,15.25797
11301.0,15.31873
11306.79,15.28787
11312.57,15.34734
11318.36,15.29289
11324.14,15.31989
11329.93,15.34236
11335.71,15.3743
11341.5,15.41705
11347.28,15.44758
11353.07,15.45736
11358.86,15.40224
11364.64,15.3865
11370.43,15.35653
11376.21,15.4048
11382.0,15.48275
11387.78,15.47402
11393.57,15.50681
11399.35,15.43609
11405.14,15.42497
11410.92,15.56663
11416.71,15.53375
11422.5,15.44944
11428.28,15.52872
11434.07,15.58154
11439.85,15.52285
11445.64,15.41596
11451.42,15.65197
11457.21,15.50871
11462.99,15.51275
11468.78,15.54455
11474.57,15.60466
11480.35,15.70739
11486.14,15.54098
11491.92,15.68446
11497.71,15.6363
11503.49,15.64129
11509.28,15.63272
11515.06,15.69432
11520.85,15.6912
11526.63,15.66889
11532.42,15.71112
11538.21,15.7005
11543.99,15.58648
11549.78,15.81398
11555.56,15.73086
11561.35,15.67865
11567.13,15.65424
11572.92,15.71109
11578.7,15.69761
11584.49,15.74402
11590.28,15.80272
11596.06,15.73485
11601.85,15.74088
11607.63,15.67184
11613.42,15.80241
11619.2,15.72623
11624.99,15.78485
11630.77,15.91422
11636.56,15.78905
11642.34,15.69195
11648.13,15.71272
11653.92,15.77489
11659.7,15.86787
11665.49,15.76323
11671.27,15.79835
11677.06,15.67257
11682.84,15.71807
11688.63,15.86371
11694.41,15.92403
11700.2,15.63363
11705.99,15.73738
11711.77,15.79576
11717.56,15.7689
11723.34,15.8263
11729.13,15.68851
11734.91,15.84754
11740.7,15.90028
11746.48,15.80962
11752.27,15.84546
11758.05,15.75777
11763.84,15.94778
11769.63,15.65127
11775.41,15.86989
11781.2,15.64985
11786.98,15.78262
11792.77,15.76342
11798.55,15.74964
11804.34,15.72256
11810.12,15.748
11815.91,15.74532
11821.7,15.72141
11827.48,15.76865
11833.27,15.79797
11839.05,15.62139
11844.84,15.7068
11850.62,15.55981
11856.41,15.64554
11862.19,15.61045
11867.98,15.78671
11873.76,15.55606
11879.55,15.61916
11885.34,15.47968
11891.12,15.59158
11896.91,15.53038
11902.69,15.64781
11908.48,15.71289
11914.26,15.48438
11920.05,15.66377
11925.83,15.63549
11931.62,15.56681
11937.41,15.6455
11943.19,15.47188
11948.98,15.56792
11954.76,15.54794
11960.55,15.70854
11966.33,15.58498
11972.12,15.44264
11977.9,15.52874
11983.69,15.54646
11989.47,15.51286
11995.26,15.52401
11999.12,15.61143