File: Data/NIR/S0024LDPE_4.csv
Wavenumber,Intensity
3999.706,1.227147
4005.491,1.222638
4011.277,1.226553
4017.062,1.225597
4022.848,1.227278
4028.633,1.231473
4034.419,1.233306
4040.204,1.234274
4045.99,1.238529
4051.775,1.237844
4057.561,1.235788
4063.346,1.240795
4069.132,1.23916
4074.917,1.24247
4080.703,1.242578
4086.488,1.23597
4092.274,1.242598
4098.059,1.241402
4103.845,1.247045
4109.63,1.241866
4115.416,1.24394
4121.201,1.243969
4126.987,1.243422
4132.772,1.246463
4138.558,1.23954
4144.343,1.247922
4150.129,1.246628
4155.914,1.24696
4161.7,1.244436
4167.485,1.249243
4173.271,1.251571
4179.056,1.252122
4184.842,1.256436
4190.627,1.260309
4196.413,1.261848
4202.198,1.263384
4207.983,1.263247
4213.769,1.267595
4219.555,1.273886
4225.34,1.272344
4231.125,1.272638
4236.911,1.277883
4242.697,1.276753
4248.482,1.272513
4254.268,1.27816
4260.053,1.28067
4265.838,1.285128
4271.624,1.281362
4277.41,1.286251
4283.195,1.293799
4288.98,1.287903
4294.766,1.293032
4300.552,1.291613
4306.337,1.294518
4312.123,1.288617
4317.908,1.285724
4323.693,1.284496
4329.479,1.284434
4335.265,1.283828
4341.05,1.292595
4346.835,1.287601
4352.621,1.294884
4358.407,1.2928
4364.192,1.29462
4369.978,1.295377
4375.763,1.298034
4381.548,1.300553
4387.334,1.297885
4393.12,1.299026
4398.905,1.301814
4404.69,1.307316
4410.476,1.321902
4416.262,1.339794
4422.047,1.359385
4427.833,1.39035
4433.618,1.420381
4439.403,1.46111
4445.189,1.502439
4450.975,1.550834
4456.76,1.599205
4462.545,1.64631
4468.331,1.691958
4474.116,1.73201
4479.902,1.784855
4485.688,1.831142
4491.473,1.882088
4497.258,1.930473
4503.044,1.983911
4508.83,2.036522
4514.615,2.094493
4520.4,2.145829
4526.186,2.189088
4531.971,2.239144
4537.757,2.290397
4543.542,2.346325
4549.328,2.397637
4555.113,2.452515
4560.899,2.512912
4566.685,2.56246
4572.47,2.606254
4578.255,2.646058
4584.041,2.680506
4589.826,2.715933
4595.612,2.73998
4601.397,2.759652
4607.183,2.781499
4612.968,2.802973
4618.754,2.821594
4624.539,2.847775
4630.325,2.87136
4636.11,2.879657
4641.896,2.89348
4647.681,2.893072
4653.467,2.878845
4659.252,2.841032
4665.038,2.802631
4670.823,2.817883
4676.609,2.874232
4682.394,2.922069
4688.18,2.953858
4693.965,2.961335
4699.751,2.96309
4705.536,2.957405
4711.322,2.943182
4717.107,2.928435
4722.893,2.895951
4728.678,2.870985
4734.464,2.858942
4740.249,2.847639
4746.035,2.832143
4751.82,2.815392
4757.605,2.795202
4763.391,2.766026
4769.177,2.73029
4774.962,2.693295
4780.748,2.667222
4786.533,2.655747
4792.319,2.646317
4798.104,2.627107
4803.89,2.600401
4809.675,2.573598
4815.46,2.537177
4821.246,2.501466
4827.032,2.471886
4832.817,2.438677
4838.603,2.404701
4844.388,2.361908
4850.174,2.316022
4855.959,2.271522
4861.745,2.242988
4867.53,2.218654
4873.315,2.21966
4879.101,2.23172
4884.887,2.239869
4890.672,2.253084
4896.458,2.268106
4902.243,2.278376
4908.028,2.284434
4913.814,2.283026
4919.6,2.282209
4925.385,2.282324
4931.17,2.277097
4936.956,2.268754
4942.742,2.261366
4948.527,2.230128
4954.313,2.169595
4960.098,2.08579
4965.883,2.052661
4971.669,2.079867
4977.455,2.100536
4983.24,2.122065
4989.025,2.155272
4994.811,2.191489
5000.597,2.239243
5006.382,2.262944
5012.167,2.276437
5017.953,2.279046
5023.738,2.296065
5029.524,2.312364
5035.31,2.31807
5041.095,2.325684
5046.88,2.325423
5052.666,2.315857
5058.451,2.29216
5064.237,2.283192
5070.022,2.285432
5075.808,2.283172
5081.593,2.27763
5087.379,2.268235
5093.165,2.257083
5098.95,2.247841
5104.735,2.253697
5110.521,2.266583
5116.307,2.275859
5122.092,2.283247
5127.877,2.290458
5133.663,2.296358
5139.448,2.287191
5145.234,2.276183
5151.02,2.263223
5156.805,2.248744
5162.59,2.24348
5168.376,2.245213
5174.161,2.241122
5179.947,2.233323
5185.732,2.229475
5191.518,2.227116
5197.303,2.233876
5203.089,2.244772
5208.874,2.236864
5214.66,2.234387
5220.445,2.2335
5226.231,2.241242
5232.016,2.244198
5237.802,2.249969
5243.587,2.267965
5249.373,2.263154
5255.158,2.273829
5260.944,2.278265
5266.729,2.271352
5272.515,2.263415
5278.3,2.262294
5284.086,2.269491
5289.871,2.27027
5295.657,2.25671
5301.442,2.242395
5307.228,2.233781
5313.013,2.239778
5318.799,2.272898
5324.584,2.300866
5330.37,2.296639
5336.155,2.291341
5341.94,2.257559
5347.726,2.216881
5353.512,2.172324
5359.297,2.136221
5365.083,2.100329
5370.868,2.069283
5376.654,2.050608
5382.439,2.03103
5388.225,2.001646
5394.01,1.974166
5399.796,1.936111
5405.581,1.901493
5411.367,1.863696
5417.152,1.804226
5422.938,1.782927
5428.723,1.762314
5434.509,1.748608
5440.294,1.747968
5446.08,1.727101
5451.865,1.714741
5457.65,1.710722
5463.436,1.695547
5469.222,1.685508
5475.007,1.666884
5480.792,1.647188
5486.578,1.634134
5492.363,1.626646
5498.149,1.626223
5503.935,1.629581
5509.72,1.631302
5515.505,1.64075
5521.291,1.644058
5527.077,1.640299
5532.862,1.642496
5538.647,1.630233
5544.433,1.629361
5550.219,1.625203
5556.004,1.623154
5561.79,1.633795
5567.575,1.653441
5573.36,1.677897
5579.146,1.702362
5584.932,1.721924
5590.717,1.730032
5596.502,1.717328
5602.288,1.695786
5608.073,1.669231
5613.859,1.635736
5619.645,1.6106
5625.43,1.583743
5631.215,1.555779
5637.001,1.531206
5642.786,1.499364
5648.572,1.452363
5654.357,1.407169
5660.143,1.383337
5665.929,1.385675
5671.714,1.390492
5677.5,1.405272
5683.285,1.424437
5689.07,1.44422
5694.856,1.4709
5700.642,1.499892
5706.427,1.539548
5712.212,1.561672
5717.998,1.566652
5723.783,1.535191
5729.569,1.474931
5735.354,1.449863
5741.14,1.431635
5746.925,1.408934
5752.711,1.385655
5758.496,1.375533
5764.282,1.367612
5770.067,1.365927
5775.853,1.366088
5781.638,1.365478
5787.424,1.368318
5793.209,1.368038
5798.995,1.372654
5804.78,1.374746
5810.566,1.382286
5816.352,1.389755
5822.137,1.40053
5827.922,1.415853
5833.708,1.439836
5839.493,1.464174
5845.279,1.502358
5851.064,1.558588
5856.85,1.637081
5862.635,1.750539
5868.421,1.886047
5874.206,2.057578
5879.992,2.249753
5885.777,2.445766
5891.563,2.607278
5897.348,2.732063
5903.134,2.832748
5908.919,2.968092
5914.705,3.160967
5920.49,3.397341
5926.276,3.665026
5932.061,3.920331
5937.847,4.155191
5943.632,4.354335
5949.418,4.539413
5955.203,4.71347
5960.989,4.895763
5966.774,5.080836
5972.56,5.263761
5978.345,5.429645
5984.131,5.582301
5989.916,5.732101
5995.702,5.858519
6001.487,5.990283
6007.272,6.107817
6013.058,6.225759
6018.844,6.342428
6024.629,6.445625
6030.415,6.540509
6036.2,6.630325
6041.985,6.709096
6047.771,6.785447
6053.557,6.850877
6059.342,6.918784
6065.128,6.976392
6070.913,7.03145
6076.698,7.081036
6082.484,7.122081
6088.27,7.160026
6094.055,7.187568
6099.841,7.201283
6105.626,7.219583
6111.412,7.243471
6117.197,7.287921
6122.982,7.33882
6128.768,7.389438
6134.554,7.444736
6140.339,7.495725
6146.125,7.549949
6151.91,7.596383
6157.695,7.648949
6163.481,7.699744
6169.267,7.74671
6175.052,7.798828
6180.837,7.82845
6186.623,7.863776
6192.408,7.891245
6198.194,7.92248
6203.979,7.950091
6209.765,7.974255
6215.551,7.994939
6221.336,8.019729
6227.121,8.036511
6232.907,8.055097
6238.692,8.063018
6244.478,8.081746
6250.264,8.086693
6256.049,8.088296
6261.834,8.103477
6267.62,8.115695
6273.405,8.122347
6279.191,8.130495
6284.977,8.143254
6290.762,8.144819
6296.547,8.148647
6302.333,8.154762
6308.118,8.152027
6313.904,8.158828
6319.689,8.15169
6325.475,8.144505
6331.26,8.127075
6337.046,8.117528
6342.831,8.098647
6348.617,8.07403
6354.402,8.053448
6360.188,8.027842
6365.974,7.987936
6371.759,7.936535
6377.544,7.895488
6383.33,7.869869
6389.115,7.859875
6394.901,7.846504
6400.687,7.817163
6406.472,7.760602
6412.257,7.692837
6418.043,7.641656
6423.828,7.603262
6429.614,7.583643
6435.399,7.55218
6441.185,7.495471
6446.97,7.418948
6452.756,7.328451
6458.541,7.230359
6464.327,7.077479
6470.112,6.84797
6475.897,6.588105
6481.684,6.432185
6487.469,6.44068
6493.254,6.513835
6499.04,6.593961
6504.825,6.66544
6510.61,6.72349
6516.396,6.776232
6522.182,6.815912
6527.967,6.854615
6533.753,6.884088
6539.538,6.902936
6545.324,6.926142
6551.109,6.939106
6556.895,6.956922
6562.68,6.974512
6568.466,7.000972
6574.251,7.028013
6580.037,7.045918
6585.822,7.058294
6591.607,7.068213
6597.393,7.071108
6603.179,7.066589
6608.964,7.062773
6614.75,7.059531
6620.535,7.046273
6626.32,7.032467
6632.106,7.01576
6637.892,6.99425
6643.677,6.969469
6649.463,6.946842
6655.248,6.923641
6661.034,6.889923
6666.819,6.850706
6672.604,6.820415
6678.39,6.780632
6684.176,6.744143
6689.961,6.699003
6695.747,6.660739
6701.532,6.606155
6707.317,6.554215
6713.103,6.503889
6718.889,6.450706
6724.674,6.398571
6730.459,6.344912
6736.245,6.299652
6742.03,6.243229
6747.816,6.195567
6753.602,6.141745
6759.387,6.094453
6765.173,6.035233
6770.958,5.976779
6776.743,5.909288
6782.529,5.824497
6788.314,5.737712
6794.1,5.643377
6799.886,5.548875
6805.671,5.448773
6811.457,5.354735
6817.242,5.26917
6823.027,5.162528
6828.813,5.055012
6834.599,4.979575
6840.384,4.924414
6846.169,4.881283
6851.955,4.831908
6857.74,4.772492
6863.526,4.724818
6869.312,4.66838
6875.097,4.616549
6880.882,4.540392
6886.668,4.473803
6892.453,4.397714
6898.239,4.32809
6904.024,4.273205
6909.81,4.228477
6915.596,4.173326
6921.381,4.104487
6927.166,4.031496
6932.952,3.93786
6938.737,3.844179
6944.523,3.754112
6950.309,3.693972
6956.094,3.667092
6961.879,3.663294
6967.665,3.653834
6973.45,3.651843
6979.236,3.643474
6985.021,3.634423
6990.807,3.60932
6996.592,3.579008
7002.378,3.539473
7008.163,3.494643
7013.949,3.455541
7019.734,3.414217
7025.52,3.400783
7031.305,3.406143
7037.091,3.405644
7042.876,3.395803
7048.662,3.341867
7054.447,3.243485
7060.232,3.141327
7066.019,3.133543
7071.804,3.241268
7077.589,3.387666
7083.375,3.511157
7089.16,3.597101
7094.946,3.668582
7100.731,3.748798
7106.517,3.847392
7112.302,3.948385
7118.088,4.05572
7123.873,4.126994
7129.659,4.155057
7135.444,4.131917
7141.229,4.049356
7147.015,3.934893
7152.801,3.760361
7158.586,3.469474
7164.372,3.084171
7170.157,2.795309
7175.942,2.797014
7181.729,2.99792
7187.514,3.239017
7193.299,3.481489
7199.085,3.718582
7204.87,3.968153
7210.655,4.192146
7216.441,4.394978
7222.227,4.601338
7228.012,4.828558
7233.798,5.030221
7239.583,5.231369
7245.369,5.402952
7251.154,5.59022
7256.939,5.773737
7262.725,5.964214
7268.511,6.141026
7274.296,6.327758
7280.082,6.506534
7285.867,6.686596
7291.652,6.857627
7297.438,7.03385
7303.224,7.188323
7309.009,7.373547
7314.794,7.525208
7320.58,7.664942
7326.365,7.814143
7332.151,7.88392
7337.937,7.989343
7343.722,8.048444
7349.508,8.114395
7355.293,8.217918
7361.079,8.2994
7366.864,8.404762
7372.649,8.485488
7378.435,8.584469
7384.221,8.6651
7390.006,8.728899
7395.792,8.795488
7401.577,8.841706
7407.362,8.86998
7413.148,8.905232
7418.934,8.93455
7424.719,8.951623
7430.504,8.973394
7436.29,8.99194
7442.075,9.000871
7447.861,9.015473
7453.646,9.036467
7459.432,9.046856
7465.218,9.055551
7471.003,9.063301
7476.788,9.069158
7482.574,9.074967
7488.359,9.072531
7494.145,9.071433
7499.931,9.069213
7505.716,9.06643
7511.501,9.059894
7517.287,9.052794
7523.072,9.049836
7528.858,9.040294
7534.644,9.033453
7540.429,9.020226
7546.214,9.005013
7552.0,8.997953
7557.785,8.988262
7563.571,8.966558
7569.356,8.953743
7575.142,8.93614
7580.927,8.928795
7586.713,8.91006
7592.498,8.898272
7598.284,8.873553
7604.069,8.843245
7609.854,8.828171
7615.641,8.80426
7621.426,8.771551
7627.211,8.751061
7632.997,8.715294
7638.782,8.691435
7644.568,8.665295
7650.354,8.64427
7656.139,8.604047
7661.924,8.593683
7667.71,8.566648
7673.495,8.539849
7679.281,8.525273
7685.066,8.498404
7690.852,8.482908
7696.637,8.466146
7702.423,8.451535
7708.208,8.432045
7713.994,8.413183
7719.779,8.385455
7725.564,8.380077
7731.35,8.351798
7737.136,8.332233
7742.921,8.317066
7748.707,8.294005
7754.492,8.273692
7760.277,8.244601
7766.063,8.229568
7771.849,8.185586
7777.634,8.172445
7783.42,8.155443
7789.205,8.143679
7794.991,8.130616
7800.776,8.114663
7806.562,8.079936
7812.347,8.05305
7818.133,8.035115
7823.918,8.009943
7829.704,7.98143
7835.489,7.955496
7841.274,7.928856
7847.06,7.890569
7852.846,7.857807
7858.631,7.819671
7864.417,7.781657
7870.202,7.748011
7875.987,7.702859
7881.773,7.666684
7887.559,7.615679
7893.344,7.561
7899.13,7.500277
7904.915,7.452831
7910.7,7.416762
7916.486,7.365783
7922.271,7.303405
7928.057,7.248203
7933.843,7.19648
7939.628,7.131178
7945.414,7.064951
7951.199,6.997476
7956.984,6.928935
7962.77,6.856255
7968.556,6.780414
7974.341,6.710719
7980.126,6.637312
7985.912,6.558917
7991.697,6.46665
7997.483,6.39772
8003.269,6.305295
8009.054,6.214437
8014.839,6.130239
8020.625,6.039331
8026.41,5.939038
8032.196,5.846663
8037.981,5.730989
8043.767,5.635135
8049.553,5.526071
8055.338,5.415226
8061.124,5.30394
8066.909,5.194203
8072.694,5.076167
8078.48,4.960127
8084.266,4.835776
8090.051,4.718894
8095.836,4.592034
8101.622,4.462953
8107.407,4.332484
8113.192,4.188592
8118.979,4.051771
8124.764,3.9157
8130.55,3.756705
8136.335,3.623325
8142.12,3.49814
8147.906,3.330307
8153.691,3.204084
8159.477,3.049045
8165.263,2.910279
8171.048,2.777815
8176.833,2.65461
8182.619,2.532424
8188.404,2.43568
8194.189,2.338559
8199.976,2.274605
8205.761,2.221587
8211.546,2.172431
8217.332,2.155828
8223.117,2.135181
8228.902,2.130725
8234.688,2.138937
8240.474,2.149816
8246.259,2.154882
8252.045,2.182528
8257.83,2.199629
8263.616,2.227644
8269.401,2.268859
8275.187,2.331355
8280.973,2.373193
8286.758,2.446644
8292.543,2.532017
8298.329,2.626182
8304.114,2.700744
8309.899,2.787055
8315.686,2.867911
8321.471,2.952209
8327.256,3.036313
8333.042,3.117669
8338.827,3.212837
8344.612,3.311841
8350.398,3.435007
8356.184,3.527727
8361.969,3.631765
8367.755,3.734418
8373.54,3.83401
8379.325,3.925705
8385.111,4.005918
8390.896,4.08766
8396.683,4.139791
8402.468,4.189811
8408.253,4.227069
8414.039,4.240268
8419.824,4.25484
8425.609,4.300667
8431.396,4.374379
8437.181,4.474398
8442.966,4.588708
8448.752,4.732552
8454.537,4.869429
8460.322,5.011338
8466.108,5.089553
8471.894,5.209893
8477.679,5.319312
8483.465,5.436598
8489.25,5.526802
8495.035,5.625415
8500.821,5.710404
8506.606,5.777956
8512.392,5.812644
8518.178,5.872414
8523.963,5.924163
8529.748,5.975025
8535.534,5.999377
8541.319,5.976962
8547.105,5.909572
8552.891,5.820197
8558.676,5.73813
8564.462,5.683562
8570.247,5.763827
8576.032,5.893554
8581.818,6.03695
8587.604,6.198051
8593.389,6.373293
8599.175,6.572423
8604.96,6.762251
8610.745,6.946996
8616.531,7.109492
8622.316,7.280132
8628.102,7.443712
8633.888,7.572868
8639.673,7.681856
8645.458,7.808942
8651.244,7.902928
8657.029,7.993415
8662.814,8.078436
8668.601,8.138994
8674.386,8.218611
8680.172,8.277879
8685.957,8.357713
8691.742,8.438869
8697.528,8.527242
8703.313,8.631218
8709.099,8.723833
8714.885,8.821312
8720.67,8.940907
8726.455,9.021634
8732.241,9.120728
8738.026,9.22028
8743.812,9.306619
8749.598,9.390915
8755.383,9.475862
8761.168,9.543108
8766.954,9.612134
8772.739,9.687344
8778.524,9.737285
8784.311,9.789435
8790.096,9.835952
8795.881,9.873316
8801.667,9.911883
8807.452,9.947762
8813.237,9.978827
8819.023,10.00493
8824.809,10.03573
8830.595,10.0469
8836.38,10.06986
8842.165,10.10572
8847.951,10.09928
8853.736,10.11698
8859.521,10.11749
8865.308,10.14002
8871.093,10.1502
8876.878,10.14913
8882.664,10.16214
8888.449,10.15412
8894.234,10.16795
8900.021,10.14066
8905.806,10.15802
8911.591,10.13735
8917.377,10.13626
8923.162,10.13948
8928.947,10.13808
8934.733,10.13985
8940.519,10.13232
8946.304,10.12627
8952.09,10.12412
8957.875,10.11409
8963.661,10.13171
8969.446,10.12767
8975.231,10.12836
8981.018,10.14145
8986.803,10.14155
8992.588,10.13911
8998.374,10.14801
9004.159,10.1461
9009.944,10.16059
9015.73,10.17348
9021.516,10.15713
9027.301,10.17711
9033.087,10.17555
9038.872,10.18763
9044.657,10.18172
9050.443,10.17193
9056.229,10.18646
9062.014,10.18897
9067.8,10.20235
9073.585,10.21
9079.37,10.18285
9085.156,10.21186
9090.941,10.20317
9096.727,10.20256
9102.513,10.20326
9108.298,10.21677
9114.084,10.20123
9119.869,10.18817
9125.654,10.18896
9131.44,10.18489
9137.226,10.16997
9143.011,10.15695
9148.797,10.16636
9154.582,10.15467
9160.367,10.15027
9166.153,10.13836
9171.938,10.14205
9177.724,10.13647
9183.51,10.11417
9189.295,10.12545
9195.08,10.0846
9200.866,10.08518
9206.651,10.07256
9212.437,10.07118
9218.223,10.06432
9224.008,10.06576
9229.793,10.03277
9235.579,10.03836
9241.364,10.03985
9247.15,10.02667
9252.936,10.01153
9258.721,10.01174
9264.507,9.99351
9270.292,10.00897
9276.077,9.978108
9281.863,9.945976
9287.648,9.964662
9293.434,9.959878
9299.22,9.959648
9305.005,9.963003
9310.79,9.933422
9316.576,9.96288
9322.361,9.963299
9328.146,9.951465
9333.933,9.949164
9339.718,9.933054
9345.503,9.933308
9351.289,9.938716
9357.074,9.91475
9362.859,9.893321
9368.646,9.883538
9374.431,9.885588
9380.217,9.845766
9386.002,9.853024
9391.787,9.819758
9397.573,9.803794
9403.358,9.801343
9409.144,9.78196
9414.93,9.768799
9420.715,9.731954
9426.5,9.745165
9432.286,9.728105
9438.071,9.688802
9443.856,9.689985
9449.643,9.66969
9455.428,9.622716
9461.213,9.609456
9466.999,9.581292
9472.784,9.566622
9478.569,9.571757
9484.355,9.558431
9490.141,9.536075
9495.926,9.50523
9501.712,9.506867
9507.497,9.494847
9513.282,9.476354
9519.068,9.454342
9524.854,9.460231
9530.64,9.446318
9536.425,9.424117
9542.21,9.399702
9547.996,9.391356
9553.781,9.373273
9559.566,9.353026
9565.353,9.350037
9571.138,9.321473
9576.923,9.323885
9582.709,9.298897
9588.494,9.30579
9594.279,9.271671
9600.065,9.287851
9605.851,9.304934
9611.636,9.325579
9617.422,9.323363
9623.207,9.369179
9628.992,9.399609
9634.778,9.392982
9640.563,9.404463
9646.349,9.426637
9652.135,9.473622
9657.92,9.496183
9663.706,9.506135
9669.491,9.539306
9675.276,9.572364
9681.063,9.5912
9686.848,9.598437
9692.633,9.649966
9698.419,9.686893
9704.204,9.692033
9709.989,9.72
9715.775,9.765874
9721.561,9.783408
9727.346,9.81606
9733.132,9.832005
9738.917,9.850667
9744.702,9.886376
9750.488,9.896486
9756.273,9.919212
9762.059,9.911243
9767.845,9.944418
9773.63,9.962201
9779.415,9.959716
9785.201,9.961542
9790.986,9.971772
9796.771,9.952914
9802.558,9.95413
9808.343,9.988617
9814.129,9.973508
9819.914,9.962843
9825.699,9.988132
9831.485,9.965394
9837.271,10.00249
9843.056,10.04009
9848.842,10.06127
9854.627,10.09441
9860.412,10.13846
9866.198,10.15195
9871.983,10.18841
9877.769,10.22158
9883.555,10.25052
9889.34,10.28433
9895.125,10.28992
9900.911,10.33483
9906.696,10.39225
9912.481,10.38916
9918.268,10.40874
9924.053,10.42758
9929.838,10.45813
9935.624,10.49202
9941.409,10.50757
9947.195,10.53236
9952.98,10.56212
9958.766,10.58247
9964.552,10.60257
9970.337,10.62508
9976.122,10.59357
9981.908,10.64447
9987.693,10.65588
9993.479,10.63481
9999.265,10.68248
10005.05,10.66957
10010.83,10.69361
10016.62,10.69285
10022.41,10.71663
10028.19,10.73713
10033.98,10.74297
10039.76,10.75233
10045.55,10.76773
10051.33,10.79143
10057.12,10.81151
10062.9,10.82611
10068.69,10.82119
10074.48,10.80753
10080.26,10.8469
10086.05,10.83803
10091.83,10.85649
10097.62,10.85666
10103.4,10.84439
10109.19,10.84185
10114.97,10.86684
10120.76,10.88141
10126.54,10.92054
10132.33,10.90568
10138.12,10.90698
10143.9,10.93833
10149.69,10.93121
10155.47,10.90609
10161.26,10.92569
10167.04,10.88799
10172.83,10.93431
10178.61,10.92198
10184.4,10.90419
10190.19,10.92088
10195.97,10.92044
10201.76,10.915
10207.54,10.92395
10213.33,10.95453
10219.11,10.94296
10224.9,11.0016
10230.68,10.90342
10236.47,10.91695
10242.25,10.90765
10248.04,10.95886
10253.83,10.95998
10259.61,10.92291
10265.4,10.89786
10271.18,10.90788
10276.97,10.88951
10282.75,10.86827
10288.54,10.90039
10294.32,10.86642
10300.11,10.88485
10305.9,10.90228
10311.68,10.9002
10317.47,10.8566
10323.25,10.90397
10329.04,10.87749
10334.82,10.84111
10340.61,10.88626
10346.39,10.86353
10352.18,10.83997
10357.96,10.84088
10363.75,10.86848
10369.54,10.79669
10375.32,10.8235
10381.11,10.80944
10386.89,10.81734
10392.68,10.81143
10398.46,10.78806
10404.25,10.80103
10410.03,10.78318
10415.82,10.79924
10421.61,10.7737
10427.39,10.75436
10433.18,10.73215
10438.96,10.71675
10444.75,10.69149
10450.53,10.67901
10456.32,10.71607
10462.1,10.65456
10467.89,10.64417
10473.67,10.64218
10479.46,10.62741
10485.25,10.58658
10491.03,10.57573
10496.82,10.50057
10502.6,10.47649
10508.39,10.49186
10514.17,10.45879
10519.96,10.42493
10525.74,10.38437
10531.53,10.34296
10537.32,10.2955
10543.1,10.30906
10548.89,10.2396
10554.67,10.17856
10560.46,10.11999
10566.24,10.08888
10572.03,10.03693
10577.81,9.950006
10583.6,9.849921
10589.38,9.830821
10595.17,9.792953
10600.96,9.684643
10606.74,9.598652
10612.53,9.58294
10618.31,9.465796
10624.1,9.391927
10629.88,9.274075
10635.67,9.215151
10641.45,9.044739
10647.24,9.031396
10653.03,8.894116
10658.81,8.856043
10664.6,8.731993
10670.38,8.617794
10676.17,8.551014
10681.95,8.47895
10687.74,8.37576
10693.52,8.365976
10699.31,8.309178
10705.09,8.298908
10710.88,8.265432
10716.67,8.247452
10722.45,8.250371
10728.24,8.235248
10734.02,8.267825
10739.81,8.234451
10745.59,8.291095
10751.38,8.294691
10757.16,8.296288
10762.95,8.399352
10768.74,8.403027
10774.52,8.471283
10780.31,8.521854
10786.09,8.586555
10791.88,8.654598
10797.66,8.714732
10803.45,8.767055
10809.23,8.789077
10815.02,8.88889
10820.8,8.903813
10826.59,8.989739
10832.38,9.095977
10838.16,9.173285
10843.95,9.210316
10849.73,9.305567
10855.52,9.266569
10861.3,9.384514
10867.09,9.440836
10872.87,9.585558
10878.66,9.55853
10884.45,9.63014
10890.23,9.676613
10896.02,9.693883
10901.8,9.815681
10907.59,9.824729
10913.37,9.893019
10919.16,9.990087
10924.94,10.05514
10930.73,10.05421
10936.51,10.14249
10942.3,10.17754
10948.09,10.2169
10953.87,10.26808
10959.66,10.37088
10965.44,10.40432
10971.23,10.37908
10977.01,10.4337
10982.8,10.45616
10988.58,10.51742
10994.37,10.58134
11000.16,10.63619
11005.94,10.63153
11011.73,10.611
11017.51,10.68709
11023.3,10.83235
11029.08,10.70702
11034.87,10.76157
11040.65,10.80138
11046.44,10.76503
11052.22,10.87509
11058.01,10.86553
11063.79,10.83078
11069.58,10.90297
11075.37,10.92248
11081.15,10.91401
11086.94,10.94187
11092.72,10.96803
11098.51,11.01932
11104.29,10.96842
11110.08,11.00286
11115.87,10.99501
11121.65,11.02207
11127.44,10.96812
11133.22,11.02491
11139.01,11.09349
11144.79,11.08244
11150.58,11.11238
11156.36,11.08574
11162.15,11.12431
11167.93,11.13615
11173.72,11.19689
11179.5,11.15333
11185.29,11.22888
11191.08,11.21179
11196.86,11.2805
11202.65,11.26751
11208.43,11.32995
11214.22,11.34859
11220.0,11.32506
11225.79,11.39418
11231.58,11.47868
11237.36,11.39994
11243.15,11.40775
11248.93,11.36048
11254.72,11.51017
11260.5,11.55831
11266.29,11.38917
11272.07,11.54325
11277.86,11.50892
11283.64,11.5775
11289.43,11.50518
11295.21,11.59199
11301.0,11.47203
11306.79,11.47701
11312.57,11.64066
11318.36,11.52714
11324.14,11.61911
11329.93,11.7384
11335.71,11.68156
11341.5,11.68005
11347.28,11.71481
11353.07,11.61877
11358.86,11.60284
11364.64,11.71504
11370.43,11.72403
11376.21,11.63248
11382.0,11.61834
11387.78,11.76328
11393.57,11.70817
11399.35,11.6966
11405.14,11.77073
11410.92,11.71831
11416.71,11.7024
11422.5,11.7811
11428.28,11.78604
11434.07,11.88807
11439.85,11.88087
11445.64,11.86329
11451.42,11.86829
11457.21,11.9095
11462.99,11.83041
11468.78,11.85944
11474.57,11.97375
11480.35,11.838
11486.14,11.81299
11491.92,11.87562
11497.71,11.99112
11503.49,11.92973
11509.28,11.87717
11515.06,11.89748
11520.85,11.96863
11526.63,11.9465
11532.42,11.97849
11538.21,11.91446
11543.99,12.07319
11549.78,11.95789
11555.56,11.91458
11561.35,11.97381
11567.13,12.00498
11572.92,11.96154
11578.7,11.94949
11584.49,11.98137
11590.28,12.11028
11596.06,11.94781
11601.85,12.01259
11607.63,12.0666
11613.42,12.01373
11619.2,11.98662
11624.99,11.99929
11630.77,12.05918
11636.56,12.13566
11642.34,12.04356
11648.13,12.13216
11653.92,12.09357
11659.7,12.01712
11665.49,12.03586
11671.27,12.11422
11677.06,11.92808
11682.84,12.04376
11688.63,12.06409
11694.41,12.03087
11700.2,11.99142
11705.99,12.07246
11711.77,11.98148
11717.56,12.10523
11723.34,12.02864
11729.13,12.04406
11734.91,12.16431
11740.7,12.13134
11746.48,12.05214
11752.27,11.94003
11758.05,12.12
11763.84,12.00302
11769.63,12.0645
11775.41,11.97051
11781.2,12.04088
11786.98,12.05093
11792.77,12.05824
11798.55,11.97899
11804.34,11.94401
11810.12,11.98847
11815.91,11.92321
11821.7,12.06666
11827.48,11.94867
11833.27,11.78346
11839.05,12.03705
11844.84,11.90032
11850.62,11.89465
11856.41,11.92114
11862.19,11.99316
11867.98,11.82356
11873.76,11.80421
11879.55,11.83174
11885.34,11.83986
11891.12,11.79998
11896.91,11.76558
11902.69,11.78297
11908.48,11.5254
11914.26,11.67989
11920.05,11.69159
11925.83,11.57767
11931.62,11.8064
11937.41,11.74714
11943.19,11.69351
11948.98,11.56696
11954.76,11.68602
11960.55,11.54692
11966.33,11.67599
11972.12,11.59979
11977.9,11.60751
11983.69,11.53323
11989.47,11.56571
11995.26,11.58813
11999.12,11.51933