File: Data/NIR/S0024LDPE_5.csv
Wavenumber,Intensity
3999.706,3.716538
4005.491,3.714196
4011.277,3.725777
4017.062,3.728894
4022.848,3.732522
4028.633,3.739396
4034.419,3.738991
4040.204,3.742059
4045.99,3.751571
4051.775,3.751208
4057.561,3.755081
4063.346,3.758469
4069.132,3.755981
4074.917,3.764985
4080.703,3.771409
4086.488,3.764159
4092.274,3.770849
4098.059,3.768736
4103.845,3.774421
4109.63,3.77378
4115.416,3.779565
4121.201,3.779159
4126.987,3.777862
4132.772,3.783987
4138.558,3.780025
4144.343,3.784086
4150.129,3.784115
4155.914,3.791626
4161.7,3.790243
4167.485,3.796124
4173.271,3.800444
4179.056,3.808537
4184.842,3.808667
4190.627,3.818534
4196.413,3.828266
4202.198,3.830596
4207.983,3.839758
4213.769,3.845378
4219.555,3.855298
4225.34,3.85754
4231.125,3.865562
4236.911,3.873763
4242.697,3.87443
4248.482,3.877206
4254.268,3.874978
4260.053,3.882051
4265.838,3.889497
4271.624,3.893737
4277.41,3.895351
4283.195,3.904371
4288.98,3.90172
4294.766,3.902841
4300.552,3.908311
4306.337,3.910296
4312.123,3.907886
4317.908,3.904228
4323.693,3.899275
4329.479,3.904574
4335.265,3.907023
4341.05,3.911706
4346.835,3.905358
4352.621,3.916617
4358.407,3.910991
4364.192,3.915772
4369.978,3.915838
4375.763,3.919004
4381.548,3.921359
4387.334,3.91835
4393.12,3.925369
4398.905,3.924249
4404.69,3.93323
4410.476,3.940207
4416.262,3.950305
4422.047,3.963827
4427.833,3.986546
4433.618,4.001792
4439.403,4.029105
4445.189,4.050181
4450.975,4.081307
4456.76,4.109137
4462.545,4.136065
4468.331,4.164778
4474.116,4.188455
4479.902,4.216021
4485.688,4.247706
4491.473,4.278767
4497.258,4.309944
4503.044,4.341028
4508.83,4.372761
4514.615,4.409441
4520.4,4.443963
4526.186,4.476194
4531.971,4.514794
4537.757,4.555766
4543.542,4.596247
4549.328,4.639698
4555.113,4.684204
4560.899,4.728537
4566.685,4.765579
4572.47,4.805518
4578.255,4.834496
4584.041,4.861028
4589.826,4.887704
4595.612,4.912575
4601.397,4.926254
4607.183,4.945846
4612.968,4.967379
4618.754,4.982197
4624.539,5.003212
4630.325,5.021408
4636.11,5.030928
4641.896,5.036813
4647.681,5.03972
4653.467,5.029969
4659.252,5.001647
4665.038,4.977497
4670.823,4.990855
4676.609,5.031542
4682.394,5.075277
4688.18,5.098429
4693.965,5.110493
4699.751,5.11814
4705.536,5.116065
4711.322,5.107237
4717.107,5.096854
4722.893,5.075057
4728.678,5.061067
4734.464,5.050081
4740.249,5.047286
4746.035,5.033123
4751.82,5.022961
4757.605,5.013085
4763.391,4.993421
4769.177,4.965611
4774.962,4.937002
4780.748,4.924736
4786.533,4.915589
4792.319,4.906726
4798.104,4.895761
4803.89,4.880763
4809.675,4.861673
4815.46,4.834424
4821.246,4.809369
4827.032,4.790071
4832.817,4.76817
4838.603,4.748408
4844.388,4.715782
4850.174,4.684374
4855.959,4.657709
4861.745,4.636443
4867.53,4.619501
4873.315,4.621719
4879.101,4.629888
4884.887,4.635299
4890.672,4.647071
4896.458,4.659106
4902.243,4.661619
4908.028,4.669931
4913.814,4.673589
4919.6,4.665384
4925.385,4.666346
4931.17,4.664959
4936.956,4.665164
4942.742,4.658377
4948.527,4.63812
4954.313,4.596503
4960.098,4.540474
4965.883,4.517057
4971.669,4.538721
4977.455,4.552479
4983.24,4.561508
4989.025,4.585284
4994.811,4.610951
5000.597,4.645893
5006.382,4.659456
5012.167,4.673817
5017.953,4.674085
5023.738,4.683368
5029.524,4.696205
5035.31,4.701931
5041.095,4.706549
5046.88,4.707456
5052.666,4.700459
5058.451,4.690469
5064.237,4.683872
5070.022,4.685642
5075.808,4.684492
5081.593,4.68426
5087.379,4.675456
5093.165,4.669422
5098.95,4.665309
5104.735,4.671876
5110.521,4.676967
5116.307,4.685742
5122.092,4.694272
5127.877,4.69937
5133.663,4.704681
5139.448,4.700388
5145.234,4.688605
5151.02,4.680393
5156.805,4.680051
5162.59,4.672986
5168.376,4.673073
5174.161,4.668919
5179.947,4.668988
5185.732,4.667064
5191.518,4.664854
5197.303,4.676409
5203.089,4.670815
5208.874,4.682946
5214.66,4.668492
5220.445,4.672993
5226.231,4.683432
5232.016,4.685249
5237.802,4.685975
5243.587,4.706118
5249.373,4.703853
5255.158,4.707941
5260.944,4.708181
5266.729,4.701566
5272.515,4.691482
5278.3,4.691518
5284.086,4.697175
5289.871,4.705405
5295.657,4.686969
5301.442,4.682174
5307.228,4.682498
5313.013,4.672967
5318.799,4.70159
5324.584,4.718791
5330.37,4.725718
5336.155,4.72715
5341.94,4.692389
5347.726,4.671121
5353.512,4.655935
5359.297,4.607506
5365.083,4.591798
5370.868,4.561955
5376.654,4.564618
5382.439,4.540668
5388.225,4.52302
5394.01,4.517668
5399.796,4.481173
5405.581,4.459069
5411.367,4.447465
5417.152,4.39603
5422.938,4.377464
5428.723,4.388543
5434.509,4.373156
5440.294,4.372354
5446.08,4.360014
5451.865,4.338176
5457.65,4.337589
5463.436,4.333245
5469.222,4.325418
5475.007,4.326683
5480.792,4.294323
5486.578,4.291955
5492.363,4.299381
5498.149,4.284438
5503.935,4.288157
5509.72,4.290514
5515.505,4.296501
5521.291,4.302549
5527.077,4.294679
5532.862,4.293328
5538.647,4.289625
5544.433,4.288737
5550.219,4.285738
5556.004,4.287239
5561.79,4.291973
5567.575,4.305858
5573.36,4.32154
5579.146,4.335713
5584.932,4.349133
5590.717,4.353345
5596.502,4.349859
5602.288,4.330671
5608.073,4.314975
5613.859,4.293771
5619.645,4.279263
5625.43,4.261517
5631.215,4.242787
5637.001,4.229764
5642.786,4.208555
5648.572,4.177924
5654.357,4.149993
5660.143,4.129014
5665.929,4.127058
5671.714,4.138065
5677.5,4.150189
5683.285,4.159763
5689.07,4.176518
5694.856,4.192205
5700.642,4.210795
5706.427,4.237453
5712.212,4.250526
5717.998,4.256018
5723.783,4.235625
5729.569,4.200175
5735.354,4.179731
5741.14,4.168346
5746.925,4.155241
5752.711,4.132473
5758.496,4.12478
5764.282,4.120704
5770.067,4.113616
5775.853,4.114213
5781.638,4.119488
5787.424,4.117435
5793.209,4.120267
5798.995,4.13171
5804.78,4.128749
5810.566,4.130724
5816.352,4.142981
5822.137,4.151257
5827.922,4.166908
5833.708,4.178141
5839.493,4.193435
5845.279,4.219741
5851.064,4.259205
5856.85,4.310927
5862.635,4.383019
5868.421,4.469061
5874.206,4.58501
5879.992,4.717145
5885.777,4.854692
5891.563,4.972515
5897.348,5.063443
5903.134,5.142147
5908.919,5.245091
5914.705,5.394919
5920.49,5.577031
5926.276,5.795906
5932.061,6.009263
5937.847,6.215504
5943.632,6.387336
5949.418,6.547974
5955.203,6.706312
5960.989,6.870197
5966.774,7.047053
5972.56,7.205454
5978.345,7.364357
5984.131,7.503759
5989.916,7.645093
5995.702,7.774352
6001.487,7.892916
6007.272,8.011935
6013.058,8.125013
6018.844,8.238549
6024.629,8.33781
6030.415,8.436215
6036.2,8.52099
6041.985,8.597015
6047.771,8.673855
6053.557,8.742225
6059.342,8.811341
6065.128,8.863386
6070.913,8.919014
6076.698,8.970271
6082.484,9.011187
6088.27,9.052236
6094.055,9.082955
6099.841,9.088534
6105.626,9.107642
6111.412,9.140368
6117.197,9.180285
6122.982,9.228348
6128.768,9.282545
6134.554,9.340517
6140.339,9.395788
6146.125,9.446218
6151.91,9.49542
6157.695,9.554742
6163.481,9.598568
6169.267,9.641998
6175.052,9.694118
6180.837,9.734689
6186.623,9.766777
6192.408,9.798303
6198.194,9.828424
6203.979,9.852576
6209.765,9.881844
6215.551,9.901263
6221.336,9.926808
6227.121,9.948224
6232.907,9.967993
6238.692,9.977553
6244.478,9.992352
6250.264,10.00028
6256.049,10.00782
6261.834,10.01955
6267.62,10.0307
6273.405,10.0393
6279.191,10.04453
6284.977,10.05514
6290.762,10.0577
6296.547,10.06034
6302.333,10.07389
6308.118,10.07333
6313.904,10.076
6319.689,10.07012
6325.475,10.06164
6331.26,10.04618
6337.046,10.03761
6342.831,10.01779
6348.617,9.993386
6354.402,9.966778
6360.188,9.946714
6365.974,9.903194
6371.759,9.850207
6377.544,9.806913
6383.33,9.787269
6389.115,9.773001
6394.901,9.758106
6400.687,9.730789
6406.472,9.671073
6412.257,9.603951
6418.043,9.54898
6423.828,9.516064
6429.614,9.497038
6435.399,9.459704
6441.185,9.405526
6446.97,9.330513
6452.756,9.238053
6458.541,9.139487
6464.327,8.985248
6470.112,8.757756
6475.897,8.503729
6481.684,8.347686
6487.469,8.354811
6493.254,8.430483
6499.04,8.509723
6504.825,8.581218
6510.61,8.640126
6516.396,8.686749
6522.182,8.731159
6527.967,8.766163
6533.753,8.792034
6539.538,8.81461
6545.324,8.837191
6551.109,8.848785
6556.895,8.86584
6562.68,8.890042
6568.466,8.91573
6574.251,8.937799
6580.037,8.955797
6585.822,8.970133
6591.607,8.978506
6597.393,8.984766
6603.179,8.982716
6608.964,8.979179
6614.75,8.976772
6620.535,8.960743
6626.32,8.948054
6632.106,8.930925
6637.892,8.910711
6643.677,8.888469
6649.463,8.866145
6655.248,8.841033
6661.034,8.806207
6666.819,8.771289
6672.604,8.736399
6678.39,8.696451
6684.176,8.662178
6689.961,8.616145
6695.747,8.578459
6701.532,8.528053
6707.317,8.478994
6713.103,8.427115
6718.889,8.372652
6724.674,8.327921
6730.459,8.273818
6736.245,8.232007
6742.03,8.175528
6747.816,8.128281
6753.602,8.080091
6759.387,8.029306
6765.173,7.976411
6770.958,7.918456
6776.743,7.856725
6782.529,7.774582
6788.314,7.690851
6794.1,7.600657
6799.886,7.509552
6805.671,7.418072
6811.457,7.332235
6817.242,7.247783
6823.027,7.154392
6828.813,7.059844
6834.599,6.98496
6840.384,6.932728
6846.169,6.895489
6851.955,6.846019
6857.74,6.796525
6863.526,6.75252
6869.312,6.706658
6875.097,6.647421
6880.882,6.586965
6886.668,6.527917
6892.453,6.459919
6898.239,6.403491
6904.024,6.349871
6909.81,6.314123
6915.596,6.260251
6921.381,6.203053
6927.166,6.140086
6932.952,6.060095
6938.737,5.978618
6944.523,5.900744
6950.309,5.846311
6956.094,5.834499
6961.879,5.829389
6967.665,5.817094
6973.45,5.820157
6979.236,5.807786
6985.021,5.802236
6990.807,5.780859
6996.592,5.751534
7002.378,5.723375
7008.163,5.679953
7013.949,5.647923
7019.734,5.618173
7025.52,5.605941
7031.305,5.607352
7037.091,5.614858
7042.876,5.605345
7048.662,5.559854
7054.447,5.477772
7060.232,5.392232
7066.019,5.395117
7071.804,5.477303
7077.589,5.592532
7083.375,5.689116
7089.16,5.765001
7094.946,5.834253
7100.731,5.897792
7106.517,5.981845
7112.302,6.055793
7118.088,6.168148
7123.873,6.206224
7129.659,6.234213
7135.444,6.219638
7141.229,6.154291
7147.015,6.044842
7152.801,5.898736
7158.586,5.651679
7164.372,5.347994
7170.157,5.135681
7175.942,5.135983
7181.729,5.301199
7187.514,5.477843
7193.299,5.687129
7199.085,5.880907
7204.87,6.108526
7210.655,6.284452
7216.441,6.459328
7222.227,6.654616
7228.012,6.859137
7233.798,7.062767
7239.583,7.226705
7245.369,7.393645
7251.154,7.570504
7256.939,7.733741
7262.725,7.931855
7268.511,8.096671
7274.296,8.283826
7280.082,8.448486
7285.867,8.633259
7291.652,8.803521
7297.438,8.969364
7303.224,9.128914
7309.009,9.320615
7314.794,9.477113
7320.58,9.615851
7326.365,9.772358
7332.151,9.841236
7337.937,9.941903
7343.722,10.02723
7349.508,10.08237
7355.293,10.18868
7361.079,10.26892
7366.864,10.37642
7372.649,10.46041
7378.435,10.55955
7384.221,10.64228
7390.006,10.71898
7395.792,10.78177
7401.577,10.8207
7407.362,10.86362
7413.148,10.89677
7418.934,10.93318
7424.719,10.94213
7430.504,10.96872
7436.29,10.98653
7442.075,11.00469
7447.861,11.01131
7453.646,11.02754
7459.432,11.04784
7465.218,11.05822
7471.003,11.06438
7476.788,11.07024
7482.574,11.06969
7488.359,11.07266
7494.145,11.07783
7499.931,11.06765
7505.716,11.06363
7511.501,11.06015
7517.287,11.0497
7523.072,11.05106
7528.858,11.03456
7534.644,11.03127
7540.429,11.01361
7546.214,11.0112
7552.0,10.98992
7557.785,10.97856
7563.571,10.96238
7569.356,10.94996
7575.142,10.93829
7580.927,10.93018
7586.713,10.91111
7592.498,10.89547
7598.284,10.86998
7604.069,10.84214
7609.854,10.82609
7615.641,10.79789
7621.426,10.76476
7627.211,10.74147
7632.997,10.70874
7638.782,10.66846
7644.568,10.65377
7650.354,10.63304
7656.139,10.59193
7661.924,10.57787
7667.71,10.55467
7673.495,10.53338
7679.281,10.50684
7685.066,10.49254
7690.852,10.46908
7696.637,10.4489
7702.423,10.44005
7708.208,10.41443
7713.994,10.39329
7719.779,10.36388
7725.564,10.35897
7731.35,10.3325
7737.136,10.31962
7742.921,10.30378
7748.707,10.28029
7754.492,10.25943
7760.277,10.22388
7766.063,10.2024
7771.849,10.1742
7777.634,10.14658
7783.42,10.14262
7789.205,10.12193
7794.991,10.11238
7800.776,10.0881
7806.562,10.06207
7812.347,10.03488
7818.133,10.01534
7823.918,9.988013
7829.704,9.961079
7835.489,9.93628
7841.274,9.90398
7847.06,9.868549
7852.846,9.841052
7858.631,9.798791
7864.417,9.757808
7870.202,9.713265
7875.987,9.679377
7881.773,9.625847
7887.559,9.590955
7893.344,9.539169
7899.13,9.471919
7904.915,9.435595
7910.7,9.394555
7916.486,9.334432
7922.271,9.277323
7928.057,9.225996
7933.843,9.157396
7939.628,9.098049
7945.414,9.036788
7951.199,8.977785
7956.984,8.90629
7962.77,8.82966
7968.556,8.748267
7974.341,8.682839
7980.126,8.607336
7985.912,8.53418
7991.697,8.457517
7997.483,8.373182
8003.269,8.293423
8009.054,8.206347
8014.839,8.118882
8020.625,8.035423
8026.41,7.942414
8032.196,7.856112
8037.981,7.738581
8043.767,7.641075
8049.553,7.551453
8055.338,7.447748
8061.124,7.343303
8066.909,7.237676
8072.694,7.125159
8078.48,7.02693
8084.266,6.914081
8090.051,6.800744
8095.836,6.694149
8101.622,6.573603
8107.407,6.457968
8113.192,6.33707
8118.979,6.211762
8124.764,6.089794
8130.55,5.973056
8136.335,5.855467
8142.12,5.743256
8147.906,5.625482
8153.691,5.507995
8159.477,5.39165
8165.263,5.287539
8171.048,5.173256
8176.833,5.08101
8182.619,4.986714
8188.404,4.921127
8194.189,4.835646
8199.976,4.806476
8205.761,4.764418
8211.546,4.731765
8217.332,4.714977
8223.117,4.713971
8228.902,4.699896
8234.688,4.70389
8240.474,4.718694
8246.259,4.725654
8252.045,4.740831
8257.83,4.760074
8263.616,4.787845
8269.401,4.800853
8275.187,4.841869
8280.973,4.882034
8286.758,4.930802
8292.543,4.993532
8298.329,5.060869
8304.114,5.120316
8309.899,5.184777
8315.686,5.24794
8321.471,5.316749
8327.256,5.382041
8333.042,5.458722
8338.827,5.528108
8344.612,5.609424
8350.398,5.700724
8356.184,5.787677
8361.969,5.874698
8367.755,5.957201
8373.54,6.046543
8379.325,6.12089
8385.111,6.190958
8390.896,6.255321
8396.683,6.305268
8402.468,6.342941
8408.253,6.382652
8414.039,6.396407
8419.824,6.404801
8425.609,6.448649
8431.396,6.508646
8437.181,6.611577
8442.966,6.713291
8448.752,6.831998
8454.537,6.965449
8460.322,7.07983
8466.108,7.163123
8471.894,7.274775
8477.679,7.377389
8483.465,7.475715
8489.25,7.582491
8495.035,7.669046
8500.821,7.748004
8506.606,7.813737
8512.392,7.845243
8518.178,7.893518
8523.963,7.942969
8529.748,7.999612
8535.534,8.012518
8541.319,8.005787
8547.105,7.943605
8552.891,7.850733
8558.676,7.774191
8564.462,7.720602
8570.247,7.809118
8576.032,7.917788
8581.818,8.053555
8587.604,8.223982
8593.389,8.381439
8599.175,8.590223
8604.96,8.764524
8610.745,8.948681
8616.531,9.106627
8622.316,9.294511
8628.102,9.441136
8633.888,9.582191
8639.673,9.696603
8645.458,9.814092
8651.244,9.914349
8657.029,10.00626
8662.814,10.09674
8668.601,10.16955
8674.386,10.25273
8680.172,10.30172
8685.957,10.37912
8691.742,10.47355
8697.528,10.56032
8703.313,10.65919
8709.099,10.77561
8714.885,10.85984
8720.67,10.98669
8726.455,11.07968
8732.241,11.18031
8738.026,11.29343
8743.812,11.3827
8749.598,11.46712
8755.383,11.54129
8761.168,11.62635
8766.954,11.7009
8772.739,11.7687
8778.524,11.81512
8784.311,11.88909
8790.096,11.93307
8795.881,11.96707
8801.667,12.01772
8807.452,12.05879
8813.237,12.08454
8819.023,12.11804
8824.809,12.14839
8830.595,12.16258
8836.38,12.18606
8842.165,12.22499
8847.951,12.21982
8853.736,12.23937
8859.521,12.23905
8865.308,12.25925
8871.093,12.27178
8876.878,12.25723
8882.664,12.29215
8888.449,12.27378
8894.234,12.277
8900.021,12.27909
8905.806,12.28646
8911.591,12.26796
8917.377,12.26459
8923.162,12.26416
8928.947,12.25974
8934.733,12.28035
8940.519,12.25161
8946.304,12.24925
8952.09,12.25463
8957.875,12.25027
8963.661,12.2571
8969.446,12.2543
8975.231,12.26521
8981.018,12.28087
8986.803,12.26879
8992.588,12.28552
8998.374,12.289
9004.159,12.29719
9009.944,12.29403
9015.73,12.30935
9021.516,12.29449
9027.301,12.32059
9033.087,12.31679
9038.872,12.31439
9044.657,12.33053
9050.443,12.31458
9056.229,12.34005
9062.014,12.34433
9067.8,12.35254
9073.585,12.35575
9079.37,12.33956
9085.156,12.35616
9090.941,12.35043
9096.727,12.35559
9102.513,12.3521
9108.298,12.35273
9114.084,12.33931
9119.869,12.33456
9125.654,12.35314
9131.44,12.34267
9137.226,12.333
9143.011,12.31215
9148.797,12.31578
9154.582,12.30614
9160.367,12.31297
9166.153,12.27983
9171.938,12.27548
9177.724,12.28397
9183.51,12.26961
9189.295,12.26506
9195.08,12.24251
9200.866,12.2288
9206.651,12.22881
9212.437,12.22979
9218.223,12.2223
9224.008,12.19915
9229.793,12.18672
9235.579,12.20509
9241.364,12.19191
9247.15,12.17982
9252.936,12.16159
9258.721,12.16348
9264.507,12.1272
9270.292,12.14061
9276.077,12.13361
9281.863,12.11543
9287.648,12.09547
9293.434,12.09112
9299.22,12.10372
9305.005,12.10911
9310.79,12.10539
9316.576,12.10996
9322.361,12.11481
9328.146,12.09718
9333.933,12.09032
9339.718,12.08417
9345.503,12.06963
9351.289,12.0705
9357.074,12.04419
9362.859,12.04071
9368.646,12.02238
9374.431,12.0191
9380.217,12.00743
9386.002,11.99242
9391.787,11.95745
9397.573,11.94967
9403.358,11.93824
9409.144,11.90998
9414.93,11.91567
9420.715,11.8874
9426.5,11.88256
9432.286,11.84438
9438.071,11.84015
9443.856,11.8207
9449.643,11.81225
9455.428,11.77226
9461.213,11.73871
9466.999,11.71828
9472.784,11.71372
9478.569,11.68818
9484.355,11.7055
9490.141,11.67788
9495.926,11.65765
9501.712,11.64996
9507.497,11.63064
9513.282,11.61944
9519.068,11.60463
9524.854,11.589
9530.64,11.58812
9536.425,11.58499
9542.21,11.53535
9547.996,11.53932
9553.781,11.49777
9559.566,11.51394
9565.353,11.49749
9571.138,11.48606
9576.923,11.44193
9582.709,11.43391
9588.494,11.4321
9594.279,11.41435
9600.065,11.4246
9605.851,11.45367
9611.636,11.45767
9617.422,11.46951
9623.207,11.49254
9628.992,11.53932
9634.778,11.52986
9640.563,11.53942
9646.349,11.55594
9652.135,11.60653
9657.92,11.65857
9663.706,11.63883
9669.491,11.6779
9675.276,11.71705
9681.063,11.73955
9686.848,11.74794
9692.633,11.79397
9698.419,11.84642
9704.204,11.84691
9709.989,11.88649
9715.775,11.90817
9721.561,11.94378
9727.346,11.96197
9733.132,11.98258
9738.917,12.01534
9744.702,12.05389
9750.488,12.06809
9756.273,12.09018
9762.059,12.11237
9767.845,12.11039
9773.63,12.13472
9779.415,12.15148
9785.201,12.16026
9790.986,12.13261
9796.771,12.1356
9802.558,12.13115
9808.343,12.14254
9814.129,12.15301
9819.914,12.1492
9825.699,12.18966
9831.485,12.18364
9837.271,12.19714
9843.056,12.22771
9848.842,12.24919
9854.627,12.27389
9860.412,12.3315
9866.198,12.31381
9871.983,12.39879
9877.769,12.39912
9883.555,12.45855
9889.34,12.46731
9895.125,12.49205
9900.911,12.53654
9906.696,12.55697
9912.481,12.58089
9918.268,12.60835
9924.053,12.64727
9929.838,12.65152
9935.624,12.70763
9941.409,12.7143
9947.195,12.74152
9952.98,12.76338
9958.766,12.79918
9964.552,12.82837
9970.337,12.81463
9976.122,12.8068
9981.908,12.85281
9987.693,12.84901
9993.479,12.87861
9999.265,12.89446
10005.05,12.9173
10010.83,12.89456
10016.62,12.92123
10022.41,12.95299
10028.19,12.94352
10033.98,12.98935
10039.76,12.99967
10045.55,13.00623
10051.33,13.04317
10057.12,13.04832
10062.9,13.05886
10068.69,13.08638
10074.48,13.03958
10080.26,13.07339
10086.05,13.08047
10091.83,13.09969
10097.62,13.08755
10103.4,13.12639
10109.19,13.1071
10114.97,13.11363
10120.76,13.12198
10126.54,13.12598
10132.33,13.15144
10138.12,13.15231
10143.9,13.18358
10149.69,13.12753
10155.47,13.13884
10161.26,13.16515
10167.04,13.14515
10172.83,13.16574
10178.61,13.20299
10184.4,13.19679
10190.19,13.15314
10195.97,13.16073
10201.76,13.18585
10207.54,13.17083
10213.33,13.18071
10219.11,13.19149
10224.9,13.22054
10230.68,13.17754
10236.47,13.14033
10242.25,13.16941
10248.04,13.19938
10253.83,13.17746
10259.61,13.17038
10265.4,13.17774
10271.18,13.15619
10276.97,13.14431
10282.75,13.16174
10288.54,13.12911
10294.32,13.1576
10300.11,13.16255
10305.9,13.15697
10311.68,13.15066
10317.47,13.09453
10323.25,13.16505
10329.04,13.14485
10334.82,13.0929
10340.61,13.11121
10346.39,13.11049
10352.18,13.09924
10357.96,13.09944
10363.75,13.13767
10369.54,13.06086
10375.32,13.08174
10381.11,13.07579
10386.89,13.05278
10392.68,13.09136
10398.46,13.07674
10404.25,13.08277
10410.03,13.03251
10415.82,13.08085
10421.61,13.02142
10427.39,12.98625
10433.18,12.97536
10438.96,12.9595
10444.75,12.96076
10450.53,12.92108
10456.32,12.97726
10462.1,12.89843
10467.89,12.92095
10473.67,12.9207
10479.46,12.86887
10485.25,12.87566
10491.03,12.7922
10496.82,12.76158
10502.6,12.75926
10508.39,12.73014
10514.17,12.73828
10519.96,12.68929
10525.74,12.64266
10531.53,12.56102
10537.32,12.51485
10543.1,12.52853
10548.89,12.45807
10554.67,12.45014
10560.46,12.35193
10566.24,12.3029
10572.03,12.2627
10577.81,12.21589
10583.6,12.12189
10589.38,12.04479
10595.17,11.98873
10600.96,11.91159
10606.74,11.8358
10612.53,11.80483
10618.31,11.67952
10624.1,11.58329
10629.88,11.47362
10635.67,11.36518
10641.45,11.28475
10647.24,11.18744
10653.03,11.07447
10658.81,11.00391
10664.6,10.90989
10670.38,10.81685
10676.17,10.76751
10681.95,10.67844
10687.74,10.54257
10693.52,10.55047
10699.31,10.49829
10705.09,10.48879
10710.88,10.42948
10716.67,10.42651
10722.45,10.41545
10728.24,10.40512
10734.02,10.41099
10739.81,10.4083
10745.59,10.46567
10751.38,10.44876
10757.16,10.50288
10762.95,10.53587
10768.74,10.63633
10774.52,10.63062
10780.31,10.69083
10786.09,10.74034
10791.88,10.82773
10797.66,10.85679
10803.45,10.95237
10809.23,10.97479
10815.02,11.06321
10820.8,11.15197
10826.59,11.18298
10832.38,11.26522
10838.16,11.34226
10843.95,11.39178
10849.73,11.48939
10855.52,11.50959
10861.3,11.61324
10867.09,11.67347
10872.87,11.70767
10878.66,11.79201
10884.45,11.87836
10890.23,11.87987
10896.02,11.97024
10901.8,12.00946
10907.59,12.07568
10913.37,12.15026
10919.16,12.16336
10924.94,12.22674
10930.73,12.31716
10936.51,12.37038
10942.3,12.38974
10948.09,12.41717
10953.87,12.49694
10959.66,12.59702
10965.44,12.65263
10971.23,12.58932
10977.01,12.66256
10982.8,12.72632
10988.58,12.76791
10994.37,12.8132
11000.16,12.89642
11005.94,12.86889
11011.73,12.90362
11017.51,12.92946
11023.3,13.0405
11029.08,12.95142
11034.87,13.01039
11040.65,13.06171
11046.44,13.0727
11052.22,13.12122
11058.01,13.15592
11063.79,13.09917
11069.58,13.17166
11075.37,13.19737
11081.15,13.2702
11086.94,13.27669
11092.72,13.20552
11098.51,13.31738
11104.29,13.27399
11110.08,13.35355
11115.87,13.29869
11121.65,13.31331
11127.44,13.23945
11133.22,13.37453
11139.01,13.33315
11144.79,13.44872
11150.58,13.44701
11156.36,13.33467
11162.15,13.4111
11167.93,13.41291
11173.72,13.49686
11179.5,13.49095
11185.29,13.51415
11191.08,13.48613
11196.86,13.58727
11202.65,13.58613
11208.43,13.60088
11214.22,13.69633
11220.0,13.6836
11225.79,13.70931
11231.58,13.75846
11237.36,13.74835
11243.15,13.69175
11248.93,13.68015
11254.72,13.78637
11260.5,13.86846
11266.29,13.76428
11272.07,13.80366
11277.86,13.77586
11283.64,13.88657
11289.43,13.82393
11295.21,13.96847
11301.0,13.85033
11306.79,13.90516
11312.57,13.92601
11318.36,13.86832
11324.14,14.03012
11329.93,13.96586
11335.71,13.99795
11341.5,14.00035
11347.28,13.95657
11353.07,13.92516
11358.86,13.88062
11364.64,14.04442
11370.43,14.04962
11376.21,14.06064
11382.0,14.01887
11387.78,14.07123
11393.57,14.16795
11399.35,14.00144
11405.14,14.16564
11410.92,14.10357
11416.71,14.03013
11422.5,14.19736
11428.28,14.23053
11434.07,14.1746
11439.85,14.20074
11445.64,14.1418
11451.42,14.16835
11457.21,14.24615
11462.99,14.19937
11468.78,14.17984
11474.57,14.25418
11480.35,14.17324
11486.14,14.24661
11491.92,14.23392
11497.71,14.26333
11503.49,14.14213
11509.28,14.21289
11515.06,14.22406
11520.85,14.2909
11526.63,14.37339
11532.42,14.31397
11538.21,14.24866
11543.99,14.43371
11549.78,14.28641
11555.56,14.29728
11561.35,14.29049
11567.13,14.40935
11572.92,14.28101
11578.7,14.41538
11584.49,14.2333
11590.28,14.43446
11596.06,14.31886
11601.85,14.40502
11607.63,14.33314
11613.42,14.36303
11619.2,14.43579
11624.99,14.30985
11630.77,14.30443
11636.56,14.50205
11642.34,14.4127
11648.13,14.37293
11653.92,14.42783
11659.7,14.3276
11665.49,14.42859
11671.27,14.41499
11677.06,14.46724
11682.84,14.45173
11688.63,14.47718
11694.41,14.33488
11700.2,14.35313
11705.99,14.39159
11711.77,14.51737
11717.56,14.30601
11723.34,14.30086
11729.13,14.37967
11734.91,14.68715
11740.7,14.4463
11746.48,14.43576
11752.27,14.40929
11758.05,14.44897
11763.84,14.46396
11769.63,14.44951
11775.41,14.38786
11781.2,14.43078
11786.98,14.48442
11792.77,14.32246
11798.55,14.40354
11804.34,14.29516
11810.12,14.32535
11815.91,14.41111
11821.7,14.50476
11827.48,14.42166
11833.27,14.38841
11839.05,14.34118
11844.84,14.33535
11850.62,14.47211
11856.41,14.27691
11862.19,14.35863
11867.98,14.28363
11873.76,14.40257
11879.55,14.29796
11885.34,14.27277
11891.12,14.32788
11896.91,14.30572
11902.69,14.34547
11908.48,14.07791
11914.26,14.22751
11920.05,14.24337
11925.83,14.04402
11931.62,14.34067
11937.41,14.10823
11943.19,14.14571
11948.98,14.22541
11954.76,14.20582
11960.55,14.09683
11966.33,14.11241
11972.12,14.24206
11977.9,14.18348
11983.69,14.0146
11989.47,14.08709
11995.26,14.10588
11999.12,14.0251