File: Data/NIR/S0024LDPE_1.csv
Wavenumber,Intensity
3999.706,3.228478
4005.491,3.234668
4011.277,3.237737
4017.062,3.242487
4022.848,3.241789
4028.633,3.251024
4034.419,3.253844
4040.204,3.255784
4045.99,3.255614
4051.775,3.258326
4057.561,3.259995
4063.346,3.264437
4069.132,3.267437
4074.917,3.269788
4080.703,3.272527
4086.488,3.276653
4092.274,3.278424
4098.059,3.277533
4103.845,3.278898
4109.63,3.27622
4115.416,3.283152
4121.201,3.280048
4126.987,3.284194
4132.772,3.28629
4138.558,3.291004
4144.343,3.286515
4150.129,3.288179
4155.914,3.291885
4161.7,3.301736
4167.485,3.294631
4173.271,3.302137
4179.056,3.306631
4184.842,3.309805
4190.627,3.319436
4196.413,3.32429
4202.198,3.333572
4207.983,3.339656
4213.769,3.349676
4219.555,3.356093
4225.34,3.358146
4231.125,3.367419
4236.911,3.368421
4242.697,3.373069
4248.482,3.371382
4254.268,3.372129
4260.053,3.378544
4265.838,3.390402
4271.624,3.393121
4277.41,3.396915
4283.195,3.398376
4288.98,3.405707
4294.766,3.408705
4300.552,3.409127
4306.337,3.403552
4312.123,3.40699
4317.908,3.395234
4323.693,3.389371
4329.479,3.393381
4335.265,3.405048
4341.05,3.40345
4346.835,3.40965
4352.621,3.412868
4358.407,3.417338
4364.192,3.420587
4369.978,3.416539
4375.763,3.418587
4381.548,3.425058
4387.334,3.423184
4393.12,3.425037
4398.905,3.428791
4404.69,3.436877
4410.476,3.443152
4416.262,3.460797
4422.047,3.47894
4427.833,3.501721
4433.618,3.527455
4439.403,3.556638
4445.189,3.589398
4450.975,3.630292
4456.76,3.673383
4462.545,3.709707
4468.331,3.748791
4474.116,3.777604
4479.902,3.822871
4485.688,3.858138
4491.473,3.897055
4497.258,3.942251
4503.044,3.987463
4508.83,4.024349
4514.615,4.076518
4520.4,4.119455
4526.186,4.164405
4531.971,4.208169
4537.757,4.260493
4543.542,4.308949
4549.328,4.356109
4555.113,4.4091
4560.899,4.460742
4566.685,4.509838
4572.47,4.550759
4578.255,4.590622
4584.041,4.628496
4589.826,4.653359
4595.612,4.677862
4601.397,4.701583
4607.183,4.72505
4612.968,4.739123
4618.754,4.762667
4624.539,4.791187
4630.325,4.80952
4636.11,4.820756
4641.896,4.830061
4647.681,4.83404
4653.467,4.82238
4659.252,4.791842
4665.038,4.756669
4670.823,4.768049
4676.609,4.827051
4682.394,4.873793
4688.18,4.901018
4693.965,4.913847
4699.751,4.916199
4705.536,4.916869
4711.322,4.908239
4717.107,4.888082
4722.893,4.869494
4728.678,4.846478
4734.464,4.833463
4740.249,4.828357
4746.035,4.814025
4751.82,4.805365
4757.605,4.784489
4763.391,4.76111
4769.177,4.733122
4774.962,4.697918
4780.748,4.677585
4786.533,4.667521
4792.319,4.655493
4798.104,4.648019
4803.89,4.625278
4809.675,4.598019
4815.46,4.56626
4821.246,4.53587
4827.032,4.51167
4832.817,4.483389
4838.603,4.455821
4844.388,4.418895
4850.174,4.378347
4855.959,4.341485
4861.745,4.312907
4867.53,4.295803
4873.315,4.298769
4879.101,4.309095
4884.887,4.316672
4890.672,4.334094
4896.458,4.338503
4902.243,4.350425
4908.028,4.356699
4913.814,4.357703
4919.6,4.358728
4925.385,4.355949
4931.17,4.352621
4936.956,4.356637
4942.742,4.340487
4948.527,4.310362
4954.313,4.263131
4960.098,4.192123
4965.883,4.164394
4971.669,4.189043
4977.455,4.204492
4983.24,4.224498
4989.025,4.253881
4994.811,4.286807
5000.597,4.324054
5006.382,4.349103
5012.167,4.358996
5017.953,4.365967
5023.738,4.38029
5029.524,4.395924
5035.31,4.402524
5041.095,4.404028
5046.88,4.410104
5052.666,4.399578
5058.451,4.382331
5064.237,4.374708
5070.022,4.376115
5075.808,4.377063
5081.593,4.373827
5087.379,4.360094
5093.165,4.357602
5098.95,4.350688
5104.735,4.357072
5110.521,4.368381
5116.307,4.374156
5122.092,4.385268
5127.877,4.390876
5133.663,4.397815
5139.448,4.393643
5145.234,4.38296
5151.02,4.369551
5156.805,4.357701
5162.59,4.355811
5168.376,4.358326
5174.161,4.353552
5179.947,4.351436
5185.732,4.350522
5191.518,4.343776
5197.303,4.357679
5203.089,4.356896
5208.874,4.359519
5214.66,4.348625
5220.445,4.35159
5226.231,4.372131
5232.016,4.367465
5237.802,4.366312
5243.587,4.389881
5249.373,4.390937
5255.158,4.393282
5260.944,4.393663
5266.729,4.395745
5272.515,4.378931
5278.3,4.382102
5284.086,4.39267
5289.871,4.399546
5295.657,4.378226
5301.442,4.363539
5307.228,4.36436
5313.013,4.363269
5318.799,4.393903
5324.584,4.416565
5330.37,4.425256
5336.155,4.425417
5341.94,4.390367
5347.726,4.349845
5353.512,4.333084
5359.297,4.275966
5365.083,4.25184
5370.868,4.219563
5376.654,4.214422
5382.439,4.184277
5388.225,4.162285
5394.01,4.148104
5399.796,4.106344
5405.581,4.077395
5411.367,4.052079
5417.152,3.992676
5422.938,3.969991
5428.723,3.976646
5434.509,3.957792
5440.294,3.952116
5446.08,3.944541
5451.865,3.918168
5457.65,3.917156
5463.436,3.907608
5469.222,3.897483
5475.007,3.892804
5480.792,3.859015
5486.578,3.85114
5492.363,3.851695
5498.149,3.837111
5503.935,3.846155
5509.72,3.849869
5515.505,3.85665
5521.291,3.8593
5527.077,3.856352
5532.862,3.854595
5538.647,3.853671
5544.433,3.844906
5550.219,3.845937
5556.004,3.844994
5561.79,3.854063
5567.575,3.868196
5573.36,3.887747
5579.146,3.91469
5584.932,3.930901
5590.717,3.935309
5596.502,3.930835
5602.288,3.911786
5608.073,3.884438
5613.859,3.857711
5619.645,3.83613
5625.43,3.810172
5631.215,3.788967
5637.001,3.767101
5642.786,3.741596
5648.572,3.697998
5654.357,3.659627
5660.143,3.640176
5665.929,3.638224
5671.714,3.649082
5677.5,3.661464
5683.285,3.67847
5689.07,3.694293
5694.856,3.718456
5700.642,3.746052
5706.427,3.775026
5712.212,3.799505
5717.998,3.802459
5723.783,3.775296
5729.569,3.719177
5735.354,3.699325
5741.14,3.687845
5746.925,3.664161
5752.711,3.646348
5758.496,3.632251
5764.282,3.630141
5770.067,3.623749
5775.853,3.622949
5781.638,3.623751
5787.424,3.628144
5793.209,3.636487
5798.995,3.631719
5804.78,3.638405
5810.566,3.646647
5816.352,3.654618
5822.137,3.66441
5827.922,3.676612
5833.708,3.696393
5839.493,3.719594
5845.279,3.7515
5851.064,3.7997
5856.85,3.870738
5862.635,3.965659
5868.421,4.088435
5874.206,4.240318
5879.992,4.413182
5885.777,4.588908
5891.563,4.737517
5897.348,4.846855
5903.134,4.939691
5908.919,5.062607
5914.705,5.236276
5920.49,5.460782
5926.276,5.704712
5932.061,5.949955
5937.847,6.167663
5943.632,6.363371
5949.418,6.537328
5955.203,6.703028
5960.989,6.879457
5966.774,7.064867
5972.56,7.239547
5978.345,7.400641
5984.131,7.548673
5989.916,7.691306
5995.702,7.823868
6001.487,7.947158
6007.272,8.06898
6013.058,8.188616
6018.844,8.298544
6024.629,8.406559
6030.415,8.498343
6036.2,8.586451
6041.985,8.665195
6047.771,8.742645
6053.557,8.812976
6059.342,8.877146
6065.128,8.929245
6070.913,8.983634
6076.698,9.031235
6082.484,9.083344
6088.27,9.116814
6094.055,9.145259
6099.841,9.15841
6105.626,9.170936
6111.412,9.202511
6117.197,9.236783
6122.982,9.282915
6128.768,9.339359
6134.554,9.397845
6140.339,9.452246
6146.125,9.50249
6151.91,9.552243
6157.695,9.599747
6163.481,9.647421
6169.267,9.700841
6175.052,9.746439
6180.837,9.783054
6186.623,9.824354
6192.408,9.8473
6198.194,9.883351
6203.979,9.904898
6209.765,9.930907
6215.551,9.955398
6221.336,9.972267
6227.121,9.995646
6232.907,10.01868
6238.692,10.0272
6244.478,10.04099
6250.264,10.04687
6256.049,10.05699
6261.834,10.0647
6267.62,10.0765
6273.405,10.08578
6279.191,10.09036
6284.977,10.09934
6290.762,10.10618
6296.547,10.10619
6302.333,10.11629
6308.118,10.12435
6313.904,10.12348
6319.689,10.11562
6325.475,10.11191
6331.26,10.09915
6337.046,10.08815
6342.831,10.06855
6348.617,10.04772
6354.402,10.01723
6360.188,9.994886
6365.974,9.957987
6371.759,9.913812
6377.544,9.873271
6383.33,9.851202
6389.115,9.832122
6394.901,9.819842
6400.687,9.784341
6406.472,9.734112
6412.257,9.670533
6418.043,9.622156
6423.828,9.588363
6429.614,9.56543
6435.399,9.532787
6441.185,9.473584
6446.97,9.404921
6452.756,9.318419
6458.541,9.213368
6464.327,9.057683
6470.112,8.831253
6475.897,8.574617
6481.684,8.421062
6487.469,8.424519
6493.254,8.503987
6499.04,8.586934
6504.825,8.658426
6510.61,8.724007
6516.396,8.768882
6522.182,8.806958
6527.967,8.84106
6533.753,8.869128
6539.538,8.894363
6545.324,8.916336
6551.109,8.933852
6556.895,8.950963
6562.68,8.967245
6568.466,9.00004
6574.251,9.025484
6580.037,9.052019
6585.822,9.054135
6591.607,9.063107
6597.393,9.071065
6603.179,9.071513
6608.964,9.063748
6614.75,9.058354
6620.535,9.047501
6626.32,9.037779
6632.106,9.012527
6637.892,8.999437
6643.677,8.973666
6649.463,8.954552
6655.248,8.924073
6661.034,8.894023
6666.819,8.854497
6672.604,8.833376
6678.39,8.79228
6684.176,8.755019
6689.961,8.706496
6695.747,8.668981
6701.532,8.619775
6707.317,8.567465
6713.103,8.520316
6718.889,8.457433
6724.674,8.41054
6730.459,8.360535
6736.245,8.313957
6742.03,8.265889
6747.816,8.211778
6753.602,8.166821
6759.387,8.1119
6765.173,8.06582
6770.958,8.001655
6776.743,7.936
6782.529,7.849986
6788.314,7.762273
6794.1,7.674252
6799.886,7.577728
6805.671,7.481912
6811.457,7.396668
6817.242,7.294769
6823.027,7.204424
6828.813,7.104907
6834.599,7.025574
6840.384,6.968409
6846.169,6.925012
6851.955,6.878238
6857.74,6.828577
6863.526,6.780508
6869.312,6.723705
6875.097,6.666238
6880.882,6.600331
6886.668,6.527745
6892.453,6.463616
6898.239,6.394159
6904.024,6.339545
6909.81,6.300499
6915.596,6.246603
6921.381,6.184164
6927.166,6.112776
6932.952,6.026176
6938.737,5.92669
6944.523,5.844459
6950.309,5.785738
6956.094,5.762912
6961.879,5.758277
6967.665,5.75078
6973.45,5.752292
6979.236,5.740884
6985.021,5.726913
6990.807,5.708173
6996.592,5.677894
7002.378,5.646071
7008.163,5.600717
7013.949,5.558496
7019.734,5.525026
7025.52,5.504938
7031.305,5.515003
7037.091,5.515709
7042.876,5.514067
7048.662,5.45489
7054.447,5.364067
7060.232,5.258556
7066.019,5.261285
7071.804,5.363355
7077.589,5.489819
7083.375,5.608867
7089.16,5.682432
7094.946,5.767209
7100.731,5.833085
7106.517,5.94373
7112.302,6.035225
7118.088,6.141636
7123.873,6.196911
7129.659,6.22372
7135.444,6.203052
7141.229,6.133214
7147.015,6.017202
7152.801,5.836791
7158.586,5.572928
7164.372,5.204937
7170.157,4.944489
7175.942,4.93492
7181.729,5.144872
7187.514,5.360674
7193.299,5.603499
7199.085,5.830238
7204.87,6.071746
7210.655,6.277201
7216.441,6.479535
7222.227,6.679831
7228.012,6.901375
7233.798,7.122399
7239.583,7.293756
7245.369,7.464136
7251.154,7.660259
7256.939,7.831035
7262.725,8.021095
7268.511,8.20277
7274.296,8.390683
7280.082,8.561481
7285.867,8.741564
7291.652,8.912099
7297.438,9.086498
7303.224,9.239265
7309.009,9.426147
7314.794,9.581084
7320.58,9.719317
7326.365,9.871172
7332.151,9.935607
7337.937,10.04171
7343.722,10.11322
7349.508,10.17326
7355.293,10.272
7361.079,10.35022
7366.864,10.45674
7372.649,10.54645
7378.435,10.64477
7384.221,10.72599
7390.006,10.79403
7395.792,10.84649
7401.577,10.89273
7407.362,10.93421
7413.148,10.9677
7418.934,10.99289
7424.719,11.0156
7430.504,11.0348
7436.29,11.05245
7442.075,11.06852
7447.861,11.08334
7453.646,11.09559
7459.432,11.11804
7465.218,11.12137
7471.003,11.12527
7476.788,11.13103
7482.574,11.14099
7488.359,11.13916
7494.145,11.13705
7499.931,11.12793
7505.716,11.12943
7511.501,11.12435
7517.287,11.11642
7523.072,11.11691
7528.858,11.105
7534.644,11.09699
7540.429,11.08979
7546.214,11.07681
7552.0,11.06723
7557.785,11.05679
7563.571,11.04447
7569.356,11.02587
7575.142,11.00937
7580.927,10.99946
7586.713,10.97768
7592.498,10.96767
7598.284,10.94499
7604.069,10.93187
7609.854,10.911
7615.641,10.8828
7621.426,10.84901
7627.211,10.82263
7632.997,10.7958
7638.782,10.76524
7644.568,10.73765
7650.354,10.72622
7656.139,10.68867
7661.924,10.6727
7667.71,10.63769
7673.495,10.62348
7679.281,10.59533
7685.066,10.59289
7690.852,10.56466
7696.637,10.55908
7702.423,10.5358
7708.208,10.51459
7713.994,10.49782
7719.779,10.47839
7725.564,10.45428
7731.35,10.42713
7737.136,10.42992
7742.921,10.40392
7748.707,10.38509
7754.492,10.35374
7760.277,10.33015
7766.063,10.31195
7771.849,10.28524
7777.634,10.27321
7783.42,10.26087
7789.205,10.24115
7794.991,10.22498
7800.776,10.19863
7806.562,10.17595
7812.347,10.14867
7818.133,10.12854
7823.918,10.10908
7829.704,10.0784
7835.489,10.04539
7841.274,10.02773
7847.06,9.99512
7852.846,9.960526
7858.631,9.909498
7864.417,9.871368
7870.202,9.839032
7875.987,9.798486
7881.773,9.753626
7887.559,9.7121
7893.344,9.657231
7899.13,9.6323
7904.915,9.562889
7910.7,9.520379
7916.486,9.458228
7922.271,9.412433
7928.057,9.351463
7933.843,9.287355
7939.628,9.230545
7945.414,9.166323
7951.199,9.0996
7956.984,9.037404
7962.77,8.956598
7968.556,8.900565
7974.341,8.82139
7980.126,8.736945
7985.912,8.668179
7991.697,8.577431
7997.483,8.499187
8003.269,8.415434
8009.054,8.336868
8014.839,8.251294
8020.625,8.148022
8026.41,8.0612
8032.196,7.954203
8037.981,7.857153
8043.767,7.759209
8049.553,7.642884
8055.338,7.532788
8061.124,7.427613
8066.909,7.320236
8072.694,7.217714
8078.48,7.093248
8084.266,6.980929
8090.051,6.848656
8095.836,6.742284
8101.622,6.612591
8107.407,6.481464
8113.192,6.346705
8118.979,6.219227
8124.764,6.085854
8130.55,5.935436
8136.335,5.807362
8142.12,5.657452
8147.906,5.526182
8153.691,5.382849
8159.477,5.261499
8165.263,5.118874
8171.048,4.993581
8176.833,4.87124
8182.619,4.769553
8188.404,4.673488
8194.189,4.58443
8199.976,4.52877
8205.761,4.471986
8211.546,4.419761
8217.332,4.411157
8223.117,4.393583
8228.902,4.386563
8234.688,4.399377
8240.474,4.405044
8246.259,4.40603
8252.045,4.428156
8257.83,4.460104
8263.616,4.481816
8269.401,4.515497
8275.187,4.572036
8280.973,4.61815
8286.758,4.688132
8292.543,4.775537
8298.329,4.852243
8304.114,4.91931
8309.899,5.00424
8315.686,5.094653
8321.471,5.164455
8327.256,5.25505
8333.042,5.344933
8338.827,5.426315
8344.612,5.520309
8350.398,5.63191
8356.184,5.72729
8361.969,5.832327
8367.755,5.921506
8373.54,6.012511
8379.325,6.103614
8385.111,6.19868
8390.896,6.270805
8396.683,6.32029
8402.468,6.3531
8408.253,6.390165
8414.039,6.399478
8419.824,6.427226
8425.609,6.465645
8431.396,6.551968
8437.181,6.638377
8442.966,6.757262
8448.752,6.90526
8454.537,7.03698
8460.322,7.159297
8466.108,7.267086
8471.894,7.356583
8477.679,7.47098
8483.465,7.581572
8489.25,7.700191
8495.035,7.794386
8500.821,7.856538
8506.606,7.934855
8512.392,7.962623
8518.178,8.013364
8523.963,8.084837
8529.748,8.118757
8535.534,8.147792
8541.319,8.111244
8547.105,8.060644
8552.891,7.978451
8558.676,7.869199
8564.462,7.834377
8570.247,7.904071
8576.032,8.031325
8581.818,8.195601
8587.604,8.347904
8593.389,8.542463
8599.175,8.713254
8604.96,8.907385
8610.745,9.098991
8616.531,9.26874
8622.316,9.443957
8628.102,9.592085
8633.888,9.727391
8639.673,9.844052
8645.458,9.955675
8651.244,10.05172
8657.029,10.14904
8662.814,10.24013
8668.601,10.29438
8674.386,10.37283
8680.172,10.44524
8685.957,10.51308
8691.742,10.60303
8697.528,10.69677
8703.313,10.77198
8709.099,10.88586
8714.885,10.987
8720.67,11.09003
8726.455,11.18452
8732.241,11.31458
8738.026,11.39868
8743.812,11.47868
8749.598,11.55371
8755.383,11.6444
8761.168,11.71987
8766.954,11.77539
8772.739,11.84286
8778.524,11.90512
8784.311,11.95832
8790.096,12.01371
8795.881,12.03862
8801.667,12.09032
8807.452,12.1343
8813.237,12.15405
8819.023,12.16959
8824.809,12.21525
8830.595,12.23286
8836.38,12.23762
8842.165,12.26087
8847.951,12.27712
8853.736,12.28112
8859.521,12.28959
8865.308,12.30664
8871.093,12.32227
8876.878,12.30315
8882.664,12.32153
8888.449,12.3259
8894.234,12.32733
8900.021,12.34313
8905.806,12.33574
8911.591,12.31965
8917.377,12.33262
8923.162,12.3287
8928.947,12.32579
8934.733,12.30563
8940.519,12.31426
8946.304,12.30429
8952.09,12.3151
8957.875,12.30266
8963.661,12.30544
8969.446,12.31047
8975.231,12.31436
8981.018,12.32871
8986.803,12.32376
8992.588,12.33058
8998.374,12.33106
9004.159,12.34497
9009.944,12.35083
9015.73,12.35004
9021.516,12.35699
9027.301,12.3526
9033.087,12.37098
9038.872,12.36532
9044.657,12.37659
9050.443,12.38927
9056.229,12.37021
9062.014,12.38046
9067.8,12.38259
9073.585,12.39691
9079.37,12.39384
9085.156,12.39916
9090.941,12.39444
9096.727,12.39929
9102.513,12.39725
9108.298,12.39281
9114.084,12.38672
9119.869,12.39143
9125.654,12.37765
9131.44,12.376
9137.226,12.37855
9143.011,12.36204
9148.797,12.36832
9154.582,12.37885
9160.367,12.3594
9166.153,12.34861
9171.938,12.32274
9177.724,12.34409
9183.51,12.31335
9189.295,12.30534
9195.08,12.31495
9200.866,12.26699
9206.651,12.2732
9212.437,12.28209
9218.223,12.25934
9224.008,12.26145
9229.793,12.25152
9235.579,12.24551
9241.364,12.23279
9247.15,12.22711
9252.936,12.22418
9258.721,12.21418
9264.507,12.21236
9270.292,12.2097
9276.077,12.16999
9281.863,12.19381
9287.648,12.1481
9293.434,12.16826
9299.22,12.1747
9305.005,12.17037
9310.79,12.16687
9316.576,12.1633
9322.361,12.16002
9328.146,12.16661
9333.933,12.1544
9339.718,12.15238
9345.503,12.15367
9351.289,12.15492
9357.074,12.10638
9362.859,12.10486
9368.646,12.10108
9374.431,12.08302
9380.217,12.08179
9386.002,12.05988
9391.787,12.03379
9397.573,12.03117
9403.358,12.01886
9409.144,12.00588
9414.93,11.9832
9420.715,11.95982
9426.5,11.94299
9432.286,11.92008
9438.071,11.90913
9443.856,11.89603
9449.643,11.84136
9455.428,11.859
9461.213,11.83306
9466.999,11.80839
9472.784,11.77885
9478.569,11.76906
9484.355,11.7773
9490.141,11.76366
9495.926,11.73827
9501.712,11.73365
9507.497,11.71942
9513.282,11.70297
9519.068,11.69261
9524.854,11.69049
9530.64,11.67629
9536.425,11.6567
9542.21,11.62963
9547.996,11.62415
9553.781,11.62522
9559.566,11.57654
9565.353,11.55752
9571.138,11.56116
9576.923,11.55105
9582.709,11.53369
9588.494,11.53211
9594.279,11.53171
9600.065,11.53206
9605.851,11.54164
9611.636,11.54509
9617.422,11.56823
9623.207,11.56835
9628.992,11.59331
9634.778,11.62865
9640.563,11.64059
9646.349,11.6893
9652.135,11.68147
9657.92,11.72846
9663.706,11.74592
9669.491,11.7906
9675.276,11.82583
9681.063,11.8284
9686.848,11.85415
9692.633,11.89206
9698.419,11.9167
9704.204,11.92351
9709.989,11.95514
9715.775,12.01834
9721.561,12.03457
9727.346,12.03765
9733.132,12.08738
9738.917,12.11172
9744.702,12.11459
9750.488,12.17405
9756.273,12.18161
9762.059,12.16543
9767.845,12.1665
9773.63,12.1723
9779.415,12.20697
9785.201,12.19096
9790.986,12.21336
9796.771,12.21882
9802.558,12.2369
9808.343,12.20776
9814.129,12.20503
9819.914,12.21539
9825.699,12.2288
9831.485,12.23541
9837.271,12.25924
9843.056,12.2962
9848.842,12.30594
9854.627,12.3247
9860.412,12.37541
9866.198,12.4158
9871.983,12.41606
9877.769,12.47666
9883.555,12.51064
9889.34,12.54603
9895.125,12.58481
9900.911,12.56722
9906.696,12.62107
9912.481,12.6084
9918.268,12.64339
9924.053,12.66635
9929.838,12.67341
9935.624,12.70858
9941.409,12.75562
9947.195,12.76949
9952.98,12.78466
9958.766,12.85562
9964.552,12.81348
9970.337,12.8864
9976.122,12.8501
9981.908,12.87216
9987.693,12.89246
9993.479,12.92927
9999.265,12.93961
10005.05,12.93314
10010.83,12.92033
10016.62,12.9563
10022.41,12.95931
10028.19,12.96065
10033.98,12.99466
10039.76,13.01857
10045.55,13.02799
10051.33,13.0358
10057.12,13.03374
10062.9,13.05786
10068.69,13.05579
10074.48,13.0793
10080.26,13.09338
10086.05,13.11288
10091.83,13.08696
10097.62,13.10101
10103.4,13.13404
10109.19,13.14911
10114.97,13.1029
10120.76,13.13715
10126.54,13.16367
10132.33,13.13587
10138.12,13.1783
10143.9,13.15523
10149.69,13.13844
10155.47,13.13454
10161.26,13.1612
10167.04,13.15415
10172.83,13.17903
10178.61,13.14271
10184.4,13.19472
10190.19,13.21495
10195.97,13.18488
10201.76,13.15695
10207.54,13.19884
10213.33,13.19442
10219.11,13.18829
10224.9,13.22391
10230.68,13.18409
10236.47,13.17926
10242.25,13.16332
10248.04,13.17712
10253.83,13.18031
10259.61,13.17817
10265.4,13.16181
10271.18,13.15718
10276.97,13.18864
10282.75,13.11472
10288.54,13.14471
10294.32,13.15907
10300.11,13.15173
10305.9,13.14054
10311.68,13.11863
10317.47,13.12464
10323.25,13.16598
10329.04,13.11891
10334.82,13.1487
10340.61,13.13982
10346.39,13.09637
10352.18,13.1242
10357.96,13.13734
10363.75,13.12559
10369.54,13.08782
10375.32,13.10873
10381.11,13.07495
10386.89,13.07568
10392.68,13.07715
10398.46,13.06713
10404.25,13.04862
10410.03,13.03961
10415.82,13.00609
10421.61,13.05994
10427.39,12.99963
10433.18,12.96445
10438.96,12.97156
10444.75,13.03175
10450.53,12.95116
10456.32,12.95034
10462.1,12.94024
10467.89,12.93317
10473.67,12.91407
10479.46,12.91321
10485.25,12.86102
10491.03,12.83771
10496.82,12.79877
10502.6,12.79228
10508.39,12.77088
10514.17,12.72187
10519.96,12.70593
10525.74,12.67397
10531.53,12.62866
10537.32,12.6035
10543.1,12.58576
10548.89,12.55263
10554.67,12.51561
10560.46,12.42657
10566.24,12.40176
10572.03,12.30694
10577.81,12.22908
10583.6,12.18578
10589.38,12.13212
10595.17,12.05181
10600.96,11.9979
10606.74,11.89885
10612.53,11.82893
10618.31,11.75545
10624.1,11.62707
10629.88,11.55584
10635.67,11.43172
10641.45,11.3868
10647.24,11.25232
10653.03,11.16401
10658.81,11.07381
10664.6,10.97483
10670.38,10.93403
10676.17,10.81583
10681.95,10.79582
10687.74,10.68094
10693.52,10.6507
10699.31,10.59487
10705.09,10.57725
10710.88,10.57063
10716.67,10.53489
10722.45,10.54734
10728.24,10.49484
10734.02,10.52623
10739.81,10.49586
10745.59,10.5181
10751.38,10.57057
10757.16,10.60743
10762.95,10.6383
10768.74,10.68725
10774.52,10.73427
10780.31,10.7773
10786.09,10.84625
10791.88,10.84915
10797.66,10.97476
10803.45,10.97744
10809.23,11.05956
10815.02,11.15044
10820.8,11.22884
10826.59,11.22107
10832.38,11.37253
10838.16,11.45263
10843.95,11.51148
10849.73,11.57041
10855.52,11.56948
10861.3,11.69184
10867.09,11.77108
10872.87,11.83827
10878.66,11.91984
10884.45,11.93077
10890.23,11.98798
10896.02,12.01116
10901.8,12.14355
10907.59,12.15956
10913.37,12.18085
10919.16,12.28202
10924.94,12.2978
10930.73,12.2978
10936.51,12.43622
10942.3,12.3855
10948.09,12.43084
10953.87,12.49873
10959.66,12.56523
10965.44,12.67492
10971.23,12.69738
10977.01,12.65902
10982.8,12.77786
10988.58,12.76331
10994.37,12.77646
11000.16,12.81936
11005.94,12.89624
11011.73,12.9465
11017.51,12.99496
11023.3,13.05545
11029.08,13.03059
11034.87,13.04625
11040.65,13.17519
11046.44,13.08863
11052.22,13.09774
11058.01,13.14139
11063.79,13.18605
11069.58,13.20951
11075.37,13.22573
11081.15,13.24077
11086.94,13.22018
11092.72,13.19488
11098.51,13.23667
11104.29,13.31615
11110.08,13.26596
11115.87,13.22781
11121.65,13.26698
11127.44,13.3413
11133.22,13.25477
11139.01,13.29401
11144.79,13.40752
11150.58,13.34071
11156.36,13.42212
11162.15,13.45034
11167.93,13.38581
11173.72,13.45955
11179.5,13.41669
11185.29,13.50227
11191.08,13.49864
11196.86,13.50885
11202.65,13.53482
11208.43,13.6201
11214.22,13.68262
11220.0,13.61216
11225.79,13.62507
11231.58,13.6296
11237.36,13.66432
11243.15,13.66047
11248.93,13.76889
11254.72,13.79445
11260.5,13.78821
11266.29,13.74334
11272.07,13.81102
11277.86,13.79372
11283.64,13.86569
11289.43,13.89431
11295.21,13.81897
11301.0,13.86045
11306.79,13.92864
11312.57,13.93639
11318.36,13.7949
11324.14,13.84925
11329.93,13.91159
11335.71,13.97518
11341.5,13.88034
11347.28,13.96971
11353.07,14.0396
11358.86,13.9812
11364.64,13.97522
11370.43,13.93798
11376.21,13.97815
11382.0,13.99472
11387.78,14.00515
11393.57,14.05731
11399.35,14.07423
11405.14,13.93597
11410.92,14.08219
11416.71,14.14298
11422.5,14.04945
11428.28,14.05633
11434.07,14.10466
11439.85,14.2602
11445.64,14.10884
11451.42,14.20875
11457.21,14.08595
11462.99,14.14978
11468.78,14.196
11474.57,14.13449
11480.35,14.17623
11486.14,14.19768
11491.92,14.23271
11497.71,14.19022
11503.49,14.18306
11509.28,14.18386
11515.06,14.22427
11520.85,14.29115
11526.63,14.27867
11532.42,14.26706
11538.21,14.24599
11543.99,14.23724
11549.78,14.33364
11555.56,14.35631
11561.35,14.3119
11567.13,14.19173
11572.92,14.19555
11578.7,14.28526
11584.49,14.3403
11590.28,14.33221
11596.06,14.41559
11601.85,14.34562
11607.63,14.25423
11613.42,14.35533
11619.2,14.34679
11624.99,14.43609
11630.77,14.31153
11636.56,14.41404
11642.34,14.34726
11648.13,14.40061
11653.92,14.34115
11659.7,14.43392
11665.49,14.24189
11671.27,14.35975
11677.06,14.39131
11682.84,14.36699
11688.63,14.41998
11694.41,14.45817
11700.2,14.30024
11705.99,14.43453
11711.77,14.23921
11717.56,14.3892
11723.34,14.40817
11729.13,14.34315
11734.91,14.38473
11740.7,14.39348
11746.48,14.44909
11752.27,14.42326
11758.05,14.42834
11763.84,14.50898
11769.63,14.39637
11775.41,14.37874
11781.2,14.42524
11786.98,14.31876
11792.77,14.45532
11798.55,14.35616
11804.34,14.27663
11810.12,14.38722
11815.91,14.49132
11821.7,14.34743
11827.48,14.36908
11833.27,14.44744
11839.05,14.32924
11844.84,14.31503
11850.62,14.16899
11856.41,14.35086
11862.19,14.40692
11867.98,14.4591
11873.76,14.22973
11879.55,14.34137
11885.34,14.16098
11891.12,14.31885
11896.91,14.29959
11902.69,14.18068
11908.48,14.40109
11914.26,14.1132
11920.05,14.41142
11925.83,14.29481
11931.62,14.40487
11937.41,14.35373
11943.19,14.25568
11948.98,14.31744
11954.76,14.37253
11960.55,14.34176
11966.33,14.28428
11972.12,14.11301
11977.9,14.22547
11983.69,14.29234
11989.47,14.31226
11995.26,14.21434
11999.12,14.35818