File: Data/NIR/S0024LDPE_2.csv
Wavenumber,Intensity
3999.706,3.297653
4005.491,3.300513
4011.277,3.30285
4017.062,3.309868
4022.848,3.312279
4028.633,3.31511
4034.419,3.321582
4040.204,3.31954
4045.99,3.321106
4051.775,3.331779
4057.561,3.326023
4063.346,3.333549
4069.132,3.33632
4074.917,3.34091
4080.703,3.343613
4086.488,3.346404
4092.274,3.34408
4098.059,3.346608
4103.845,3.347003
4109.63,3.346603
4115.416,3.352229
4121.201,3.350126
4126.987,3.355479
4132.772,3.355854
4138.558,3.358038
4144.343,3.359305
4150.129,3.358181
4155.914,3.362601
4161.7,3.364346
4167.485,3.360166
4173.271,3.372849
4179.056,3.377397
4184.842,3.379797
4190.627,3.386023
4196.413,3.393349
4202.198,3.400042
4207.983,3.407519
4213.769,3.417471
4219.555,3.420573
4225.34,3.42769
4231.125,3.435199
4236.911,3.43848
4242.697,3.44408
4248.482,3.436857
4254.268,3.439557
4260.053,3.44432
4265.838,3.457194
4271.624,3.457787
4277.41,3.46368
4283.195,3.465276
4288.98,3.469068
4294.766,3.472855
4300.552,3.474115
4306.337,3.466077
4312.123,3.474296
4317.908,3.464802
4323.693,3.458188
4329.479,3.462492
4335.265,3.470339
4341.05,3.469975
4346.835,3.478122
4352.621,3.476921
4358.407,3.48142
4364.192,3.485901
4369.978,3.483521
4375.763,3.481331
4381.548,3.486609
4387.334,3.482432
4393.12,3.490399
4398.905,3.489396
4404.69,3.496431
4410.476,3.502291
4416.262,3.519195
4422.047,3.536875
4427.833,3.564704
4433.618,3.592339
4439.403,3.625525
4445.189,3.663524
4450.975,3.70901
4456.76,3.754334
4462.545,3.801105
4468.331,3.845863
4474.116,3.88664
4479.902,3.935428
4485.688,3.97739
4491.473,4.025895
4497.258,4.078463
4503.044,4.131497
4508.83,4.183303
4514.615,4.239202
4520.4,4.293108
4526.186,4.348796
4531.971,4.401148
4537.757,4.463309
4543.542,4.518021
4549.328,4.580633
4555.113,4.645349
4560.899,4.708047
4566.685,4.767154
4572.47,4.815998
4578.255,4.861013
4584.041,4.905083
4589.826,4.94199
4595.612,4.972065
4601.397,5.000424
4607.183,5.029792
4612.968,5.048478
4618.754,5.077426
4624.539,5.106184
4630.325,5.12965
4636.11,5.145939
4641.896,5.154927
4647.681,5.159191
4653.467,5.144822
4659.252,5.105722
4665.038,5.061418
4670.823,5.079717
4676.609,5.146506
4682.394,5.20188
4688.18,5.237281
4693.965,5.250238
4699.751,5.257245
4705.536,5.253361
4711.322,5.240768
4717.107,5.219048
4722.893,5.187496
4728.678,5.162024
4734.464,5.146924
4740.249,5.140823
4746.035,5.120504
4751.82,5.10359
4757.605,5.082972
4763.391,5.052501
4769.177,5.016634
4774.962,4.969197
4780.748,4.945752
4786.533,4.933783
4792.319,4.921081
4798.104,4.906542
4803.89,4.880784
4809.675,4.851194
4815.46,4.809118
4821.246,4.770249
4827.032,4.738679
4832.817,4.704351
4838.603,4.670753
4844.388,4.624503
4850.174,4.572712
4855.959,4.531483
4861.745,4.492507
4867.53,4.473102
4873.315,4.473204
4879.101,4.482173
4884.887,4.497108
4890.672,4.513972
4896.458,4.523409
4902.243,4.537753
4908.028,4.542041
4913.814,4.544518
4919.6,4.542276
4925.385,4.542255
4931.17,4.538278
4936.956,4.534313
4942.742,4.519268
4948.527,4.489767
4954.313,4.426466
4960.098,4.341826
4965.883,4.311371
4971.669,4.335616
4977.455,4.350842
4983.24,4.380158
4989.025,4.414307
4994.811,4.45508
5000.597,4.500373
5006.382,4.531735
5012.167,4.542581
5017.953,4.55207
5023.738,4.561616
5029.524,4.583309
5035.31,4.591438
5041.095,4.595083
5046.88,4.597337
5052.666,4.586285
5058.451,4.568809
5064.237,4.551412
5070.022,4.554755
5075.808,4.556375
5081.593,4.551759
5087.379,4.540139
5093.165,4.534208
5098.95,4.525051
5104.735,4.52909
5110.521,4.54475
5116.307,4.550953
5122.092,4.561869
5127.877,4.572216
5133.663,4.579184
5139.448,4.573689
5145.234,4.559576
5151.02,4.54319
5156.805,4.531766
5162.59,4.523063
5168.376,4.529952
5174.161,4.519649
5179.947,4.515999
5185.732,4.515121
5191.518,4.509835
5197.303,4.522685
5203.089,4.526404
5208.874,4.522126
5214.66,4.518161
5220.445,4.519008
5226.231,4.526279
5232.016,4.535367
5237.802,4.538964
5243.587,4.559472
5249.373,4.555701
5255.158,4.558434
5260.944,4.570795
5266.729,4.5647
5272.515,4.553456
5278.3,4.555271
5284.086,4.564166
5289.871,4.564897
5295.657,4.550753
5301.442,4.532123
5307.228,4.527401
5313.013,4.529575
5318.799,4.566801
5324.584,4.596632
5330.37,4.599003
5336.155,4.595028
5341.94,4.559116
5347.726,4.506528
5353.512,4.472018
5359.297,4.422369
5365.083,4.388305
5370.868,4.356254
5376.654,4.333108
5382.439,4.314141
5388.225,4.281888
5394.01,4.258602
5399.796,4.217677
5405.581,4.18283
5411.367,4.145963
5417.152,4.085036
5422.938,4.059261
5428.723,4.050553
5434.509,4.035665
5440.294,4.03197
5446.08,4.009227
5451.865,3.996905
5457.65,3.991334
5463.436,3.98344
5469.222,3.965923
5475.007,3.958264
5480.792,3.927792
5486.578,3.917485
5492.363,3.915408
5498.149,3.906467
5503.935,3.912793
5509.72,3.917503
5515.505,3.923327
5521.291,3.931656
5527.077,3.923995
5532.862,3.922077
5538.647,3.922961
5544.433,3.911341
5550.219,3.910409
5556.004,3.911353
5561.79,3.919235
5567.575,3.9385
5573.36,3.959082
5579.146,3.987406
5584.932,4.006149
5590.717,4.009671
5596.502,4.005561
5602.288,3.987055
5608.073,3.954074
5613.859,3.923719
5619.645,3.895818
5625.43,3.870602
5631.215,3.847902
5637.001,3.823815
5642.786,3.79137
5648.572,3.750235
5654.357,3.712373
5660.143,3.691563
5665.929,3.689414
5671.714,3.696961
5677.5,3.710984
5683.285,3.730959
5689.07,3.744447
5694.856,3.762656
5700.642,3.796517
5706.427,3.832755
5712.212,3.855015
5717.998,3.860689
5723.783,3.830848
5729.569,3.772641
5735.354,3.754866
5741.14,3.740118
5746.925,3.713641
5752.711,3.698868
5758.496,3.686863
5764.282,3.68322
5770.067,3.677702
5775.853,3.678273
5781.638,3.680603
5787.424,3.681758
5793.209,3.684875
5798.995,3.686868
5804.78,3.6885
5810.566,3.694034
5816.352,3.705492
5822.137,3.711108
5827.922,3.723275
5833.708,3.745533
5839.493,3.765842
5845.279,3.80027
5851.064,3.855809
5856.85,3.929692
5862.635,4.03835
5868.421,4.180271
5874.206,4.358889
5879.992,4.559738
5885.777,4.770088
5891.563,4.956175
5897.348,5.086308
5903.134,5.203218
5908.919,5.350517
5914.705,5.56709
5920.49,5.843349
5926.276,6.151622
5932.061,6.455169
5937.847,6.732488
5943.632,6.97713
5949.418,7.190808
5955.203,7.402431
5960.989,7.618958
5966.774,7.843478
5972.56,8.061087
5978.345,8.261687
5984.131,8.443197
5989.916,8.615403
5995.702,8.781176
6001.487,8.926462
6007.272,9.074765
6013.058,9.217859
6018.844,9.351818
6024.629,9.484439
6030.415,9.59242
6036.2,9.705898
6041.985,9.798346
6047.771,9.886041
6053.557,9.975072
6059.342,10.04827
6065.128,10.11649
6070.913,10.18455
6076.698,10.23478
6082.484,10.29284
6088.27,10.33766
6094.055,10.37209
6099.841,10.38778
6105.626,10.40701
6111.412,10.43941
6117.197,10.48392
6122.982,10.53871
6128.768,10.60931
6134.554,10.66942
6140.339,10.73591
6146.125,10.79559
6151.91,10.85277
6157.695,10.91411
6163.481,10.97158
6169.267,11.02881
6175.052,11.08463
6180.837,11.12799
6186.623,11.17611
6192.408,11.20136
6198.194,11.23907
6203.979,11.27212
6209.765,11.29896
6215.551,11.32823
6221.336,11.3471
6227.121,11.37394
6232.907,11.39691
6238.692,11.41272
6244.478,11.42473
6250.264,11.43191
6256.049,11.44115
6261.834,11.45217
6267.62,11.46322
6273.405,11.47682
6279.191,11.48283
6284.977,11.48988
6290.762,11.49489
6296.547,11.49921
6302.333,11.50983
6308.118,11.5125
6313.904,11.51575
6319.689,11.50752
6325.475,11.49932
6331.26,11.48413
6337.046,11.46418
6342.831,11.44411
6348.617,11.42063
6354.402,11.38725
6360.188,11.35716
6365.974,11.31959
6371.759,11.25594
6377.544,11.21383
6383.33,11.18523
6389.115,11.17072
6394.901,11.15469
6400.687,11.10837
6406.472,11.04647
6412.257,10.97093
6418.043,10.91187
6423.828,10.86988
6429.614,10.8434
6435.399,10.80649
6441.185,10.7378
6446.97,10.65246
6452.756,10.55126
6458.541,10.42585
6464.327,10.24022
6470.112,9.972369
6475.897,9.661141
6481.684,9.483412
6487.469,9.488369
6493.254,9.57762
6499.04,9.670773
6504.825,9.752626
6510.61,9.832883
6516.396,9.887945
6522.182,9.934409
6527.967,9.973798
6533.753,10.0041
6539.538,10.03207
6545.324,10.05241
6551.109,10.07913
6556.895,10.09908
6562.68,10.11502
6568.466,10.1544
6574.251,10.1858
6580.037,10.21062
6585.822,10.21989
6591.607,10.22462
6597.393,10.22899
6603.179,10.2329
6608.964,10.22883
6614.75,10.21951
6620.535,10.20709
6626.32,10.18845
6632.106,10.16745
6637.892,10.1477
6643.677,10.11413
6649.463,10.09106
6655.248,10.05182
6661.034,10.02334
6666.819,9.974699
6672.604,9.943121
6678.39,9.896039
6684.176,9.849475
6689.961,9.79105
6695.747,9.740786
6701.532,9.688458
6707.317,9.62104
6713.103,9.560563
6718.889,9.490873
6724.674,9.430935
6730.459,9.372919
6736.245,9.317115
6742.03,9.260069
6747.816,9.189868
6753.602,9.131082
6759.387,9.072643
6765.173,9.008843
6770.958,8.932686
6776.743,8.853735
6782.529,8.749541
6788.314,8.646807
6794.1,8.535809
6799.886,8.421851
6805.671,8.298282
6811.457,8.198553
6817.242,8.083644
6823.027,7.963323
6828.813,7.845468
6834.599,7.746706
6840.384,7.677992
6846.169,7.621845
6851.955,7.564011
6857.74,7.502585
6863.526,7.446251
6869.312,7.374676
6875.097,7.305131
6880.882,7.225909
6886.668,7.138535
6892.453,7.053342
6898.239,6.967612
6904.024,6.904043
6909.81,6.852508
6915.596,6.782035
6921.381,6.705792
6927.166,6.623672
6932.952,6.514608
6938.737,6.400114
6944.523,6.290689
6950.309,6.221154
6956.094,6.193996
6961.879,6.188227
6967.665,6.181709
6973.45,6.185147
6979.236,6.171563
6985.021,6.14959
6990.807,6.127452
6996.592,6.095621
7002.378,6.05046
7008.163,5.99451
7013.949,5.948585
7019.734,5.905096
7025.52,5.876695
7031.305,5.89357
7037.091,5.897623
7042.876,5.888422
7048.662,5.816986
7054.447,5.703109
7060.232,5.584126
7066.019,5.580836
7071.804,5.700988
7077.589,5.862474
7083.375,5.999826
7089.16,6.095584
7094.946,6.194408
7100.731,6.272088
7106.517,6.400856
7112.302,6.522139
7118.088,6.637821
7123.873,6.716316
7129.659,6.751777
7135.444,6.723053
7141.229,6.634647
7147.015,6.499005
7152.801,6.289484
7158.586,5.962461
7164.372,5.511605
7170.157,5.196049
7175.942,5.191317
7181.729,5.422967
7187.514,5.694173
7193.299,5.980117
7199.085,6.259377
7204.87,6.536846
7210.655,6.805179
7216.441,7.046273
7222.227,7.298761
7228.012,7.563099
7233.798,7.79975
7239.583,8.037852
7245.369,8.234273
7251.154,8.473988
7256.939,8.682047
7262.725,8.904963
7268.511,9.12362
7274.296,9.348409
7280.082,9.556189
7285.867,9.769742
7291.652,9.97218
7297.438,10.17698
7303.224,10.36122
7309.009,10.57287
7314.794,10.75659
7320.58,10.93223
7326.365,11.09984
7332.151,11.18164
7337.937,11.30903
7343.722,11.36362
7349.508,11.43973
7355.293,11.5523
7361.079,11.65058
7366.864,11.77463
7372.649,11.88511
7378.435,11.9962
7384.221,12.08202
7390.006,12.1664
7395.792,12.22178
7401.577,12.27624
7407.362,12.32521
7413.148,12.36112
7418.934,12.39666
7424.719,12.41811
7430.504,12.44299
7436.29,12.45791
7442.075,12.47418
7447.861,12.4978
7453.646,12.50941
7459.432,12.52425
7465.218,12.53189
7471.003,12.54255
7476.788,12.53936
7482.574,12.54873
7488.359,12.55019
7494.145,12.54623
7499.931,12.54494
7505.716,12.53313
7511.501,12.53071
7517.287,12.52736
7523.072,12.5226
7528.858,12.50353
7534.644,12.50255
7540.429,12.48675
7546.214,12.47564
7552.0,12.46095
7557.785,12.44324
7563.571,12.42942
7569.356,12.41453
7575.142,12.40072
7580.927,12.3844
7586.713,12.35704
7592.498,12.34172
7598.284,12.31376
7604.069,12.2905
7609.854,12.27569
7615.641,12.24318
7621.426,12.21441
7627.211,12.17507
7632.997,12.14586
7638.782,12.11228
7644.568,12.0797
7650.354,12.05754
7656.139,12.01763
7661.924,11.99561
7667.71,11.9672
7673.495,11.94257
7679.281,11.91122
7685.066,11.8966
7690.852,11.87828
7696.637,11.86707
7702.423,11.82774
7708.208,11.81619
7713.994,11.79543
7719.779,11.77355
7725.564,11.74476
7731.35,11.70978
7737.136,11.69834
7742.921,11.68132
7748.707,11.6554
7754.492,11.63469
7760.277,11.59467
7766.063,11.57272
7771.849,11.54492
7777.634,11.52957
7783.42,11.50658
7789.205,11.48428
7794.991,11.46768
7800.776,11.44181
7806.562,11.41013
7812.347,11.38982
7818.133,11.35727
7823.918,11.33059
7829.704,11.29959
7835.489,11.26828
7841.274,11.23149
7847.06,11.19591
7852.846,11.15181
7858.631,11.09806
7864.417,11.05653
7870.202,11.02051
7875.987,10.96433
7881.773,10.91457
7887.559,10.86666
7893.344,10.80978
7899.13,10.75627
7904.915,10.69225
7910.7,10.64116
7916.486,10.57581
7922.271,10.51756
7928.057,10.4494
7933.843,10.37389
7939.628,10.30026
7945.414,10.22888
7951.199,10.14312
7956.984,10.06435
7962.77,9.975633
7968.556,9.900667
7974.341,9.817677
7980.126,9.717546
7985.912,9.631253
7991.697,9.53164
7997.483,9.442464
8003.269,9.331381
8009.054,9.240674
8014.839,9.127577
8020.625,9.017205
8026.41,8.908424
8032.196,8.781849
8037.981,8.666989
8043.767,8.54732
8049.553,8.416263
8055.338,8.284408
8061.124,8.156833
8066.909,8.026048
8072.694,7.888017
8078.48,7.738988
8084.266,7.606908
8090.051,7.461473
8095.836,7.317774
8101.622,7.169296
8107.407,7.006635
8113.192,6.850664
8118.979,6.679771
8124.764,6.520231
8130.55,6.349007
8136.335,6.188639
8142.12,6.023093
8147.906,5.857736
8153.691,5.699255
8159.477,5.539446
8165.263,5.374611
8171.048,5.224661
8176.833,5.070526
8182.619,4.94603
8188.404,4.836456
8194.189,4.735439
8199.976,4.660977
8205.761,4.604026
8211.546,4.548628
8217.332,4.520431
8223.117,4.513066
8228.902,4.512018
8234.688,4.516305
8240.474,4.524901
8246.259,4.536527
8252.045,4.550658
8257.83,4.578351
8263.616,4.605748
8269.401,4.664229
8275.187,4.712548
8280.973,4.775884
8286.758,4.85977
8292.543,4.950899
8298.329,5.042002
8304.114,5.127911
8309.899,5.218323
8315.686,5.327837
8321.471,5.406931
8327.256,5.517772
8333.042,5.619077
8338.827,5.725032
8344.612,5.839962
8350.398,5.96506
8356.184,6.074241
8361.969,6.193754
8367.755,6.307252
8373.54,6.424629
8379.325,6.527517
8385.111,6.637007
8390.896,6.725446
8396.683,6.789916
8402.468,6.840412
8408.253,6.876744
8414.039,6.889123
8419.824,6.923995
8425.609,6.961078
8431.396,7.062199
8437.181,7.176942
8442.966,7.325841
8448.752,7.493693
8454.537,7.652288
8460.322,7.786025
8466.108,7.915189
8471.894,8.031844
8477.679,8.169409
8483.465,8.301574
8489.25,8.433657
8495.035,8.541855
8500.821,8.632248
8506.606,8.716883
8512.392,8.754755
8518.178,8.822257
8523.963,8.898511
8529.748,8.942405
8535.534,8.961036
8541.319,8.935908
8547.105,8.868604
8552.891,8.763028
8558.676,8.64977
8564.462,8.604365
8570.247,8.69822
8576.032,8.851625
8581.818,9.020764
8587.604,9.206939
8593.389,9.427142
8599.175,9.637567
8604.96,9.86079
8610.745,10.08213
8616.531,10.26782
8622.316,10.47606
8628.102,10.6556
8633.888,10.81542
8639.673,10.95081
8645.458,11.0855
8651.244,11.19111
8657.029,11.29076
8662.814,11.39076
8668.601,11.47518
8674.386,11.55039
8680.172,11.63533
8685.957,11.7196
8691.742,11.78801
8697.528,11.91218
8703.313,12.01591
8709.099,12.13557
8714.885,12.26863
8720.67,12.3602
8726.455,12.47063
8732.241,12.61336
8738.026,12.69798
8743.812,12.78182
8749.598,12.89371
8755.383,12.98765
8761.168,13.0478
8766.954,13.11608
8772.739,13.20426
8778.524,13.27199
8784.311,13.32565
8790.096,13.38263
8795.881,13.41786
8801.667,13.45336
8807.452,13.51254
8813.237,13.54636
8819.023,13.57029
8824.809,13.58864
8830.595,13.62384
8836.38,13.64124
8842.165,13.65861
8847.951,13.67828
8853.736,13.68656
8859.521,13.70386
8865.308,13.70284
8871.093,13.71629
8876.878,13.72199
8882.664,13.73639
8888.449,13.70798
8894.234,13.72471
8900.021,13.74731
8905.806,13.74374
8911.591,13.72993
8917.377,13.73193
8923.162,13.72732
8928.947,13.7257
8934.733,13.70362
8940.519,13.70071
8946.304,13.71474
8952.09,13.7125
8957.875,13.69123
8963.661,13.70267
8969.446,13.69991
8975.231,13.70881
8981.018,13.72011
8986.803,13.71994
8992.588,13.71741
8998.374,13.72109
9004.159,13.72452
9009.944,13.7321
9015.73,13.74557
9021.516,13.74566
9027.301,13.7617
9033.087,13.76193
9038.872,13.74947
9044.657,13.75885
9050.443,13.77775
9056.229,13.76532
9062.014,13.77343
9067.8,13.77708
9073.585,13.77545
9079.37,13.79552
9085.156,13.79461
9090.941,13.78151
9096.727,13.78494
9102.513,13.78678
9108.298,13.77418
9114.084,13.77642
9119.869,13.77116
9125.654,13.76483
9131.44,13.76278
9137.226,13.76094
9143.011,13.73616
9148.797,13.7353
9154.582,13.73954
9160.367,13.73047
9166.153,13.71727
9171.938,13.69942
9177.724,13.70876
9183.51,13.68418
9189.295,13.68799
9195.08,13.65762
9200.866,13.65043
9206.651,13.63898
9212.437,13.633
9218.223,13.61977
9224.008,13.60793
9229.793,13.59705
9235.579,13.59097
9241.364,13.59764
9247.15,13.59975
9252.936,13.57813
9258.721,13.55005
9264.507,13.55082
9270.292,13.55839
9276.077,13.54306
9281.863,13.5368
9287.648,13.50063
9293.434,13.53316
9299.22,13.49667
9305.005,13.51483
9310.79,13.5235
9316.576,13.5027
9322.361,13.50383
9328.146,13.50931
9333.933,13.50097
9339.718,13.48989
9345.503,13.48515
9351.289,13.48469
9357.074,13.44091
9362.859,13.43118
9368.646,13.42958
9374.431,13.41
9380.217,13.39889
9386.002,13.36937
9391.787,13.36875
9397.573,13.33789
9403.358,13.34935
9409.144,13.3067
9414.93,13.29739
9420.715,13.28786
9426.5,13.26192
9432.286,13.22031
9438.071,13.22161
9443.856,13.1848
9449.643,13.15902
9455.428,13.15461
9461.213,13.11238
9466.999,13.09449
9472.784,13.06463
9478.569,13.07533
9484.355,13.05017
9490.141,13.04048
9495.926,13.0093
9501.712,12.98984
9507.497,12.99718
9513.282,12.984
9519.068,12.97521
9524.854,12.96284
9530.64,12.94243
9536.425,12.91076
9542.21,12.89678
9547.996,12.87527
9553.781,12.87392
9559.566,12.85693
9565.353,12.82123
9571.138,12.82235
9576.923,12.79889
9582.709,12.75665
9588.494,12.7737
9594.279,12.76081
9600.065,12.76865
9605.851,12.76443
9611.636,12.79216
9617.422,12.81151
9623.207,12.83761
9628.992,12.84252
9634.778,12.87793
9640.563,12.89292
9646.349,12.94742
9652.135,12.95651
9657.92,12.9824
9663.706,13.01234
9669.491,13.05456
9675.276,13.07991
9681.063,13.09611
9686.848,13.13624
9692.633,13.16917
9698.419,13.18421
9704.204,13.19892
9709.989,13.2105
9715.775,13.29403
9721.561,13.30783
9727.346,13.31753
9733.132,13.3644
9738.917,13.41128
9744.702,13.41247
9750.488,13.44173
9756.273,13.46518
9762.059,13.45272
9767.845,13.47053
9773.63,13.49493
9779.415,13.48713
9785.201,13.49243
9790.986,13.52852
9796.771,13.5257
9802.558,13.48983
9808.343,13.5185
9814.129,13.49059
9819.914,13.51872
9825.699,13.52221
9831.485,13.52888
9837.271,13.55743
9843.056,13.55786
9848.842,13.58649
9854.627,13.64998
9860.412,13.67111
9866.198,13.71439
9871.983,13.73935
9877.769,13.80208
9883.555,13.8046
9889.34,13.85693
9895.125,13.87577
9900.911,13.87314
9906.696,13.93065
9912.481,13.94306
9918.268,13.99066
9924.053,13.99413
9929.838,14.02793
9935.624,14.04667
9941.409,14.0932
9947.195,14.12084
9952.98,14.11608
9958.766,14.18872
9964.552,14.16477
9970.337,14.20267
9976.122,14.20784
9981.908,14.21374
9987.693,14.22376
9993.479,14.24658
9999.265,14.25171
10005.05,14.26593
10010.83,14.27172
10016.62,14.32225
10022.41,14.29439
10028.19,14.3204
10033.98,14.33763
10039.76,14.34593
10045.55,14.37598
10051.33,14.39608
10057.12,14.41678
10062.9,14.41272
10068.69,14.42061
10074.48,14.44735
10080.26,14.44724
10086.05,14.48101
10091.83,14.43036
10097.62,14.48331
10103.4,14.47566
10109.19,14.4713
10114.97,14.45428
10120.76,14.47048
10126.54,14.50042
10132.33,14.49245
10138.12,14.52117
10143.9,14.533
10149.69,14.50757
10155.47,14.51029
10161.26,14.51472
10167.04,14.52146
10172.83,14.52486
10178.61,14.50018
10184.4,14.52281
10190.19,14.52565
10195.97,14.52204
10201.76,14.52083
10207.54,14.5348
10213.33,14.52639
10219.11,14.50978
10224.9,14.53212
10230.68,14.52522
10236.47,14.52042
10242.25,14.49558
10248.04,14.51381
10253.83,14.51082
10259.61,14.50664
10265.4,14.5062
10271.18,14.5299
10276.97,14.48505
10282.75,14.46453
10288.54,14.4746
10294.32,14.48275
10300.11,14.50766
10305.9,14.48302
10311.68,14.45272
10317.47,14.4454
10323.25,14.45778
10329.04,14.45039
10334.82,14.47838
10340.61,14.45489
10346.39,14.45476
10352.18,14.46648
10357.96,14.45258
10363.75,14.45072
10369.54,14.4237
10375.32,14.40991
10381.11,14.39626
10386.89,14.39139
10392.68,14.37476
10398.46,14.37742
10404.25,14.38763
10410.03,14.37092
10415.82,14.34404
10421.61,14.38021
10427.39,14.31869
10433.18,14.29668
10438.96,14.28339
10444.75,14.31932
10450.53,14.23921
10456.32,14.27571
10462.1,14.23655
10467.89,14.20136
10473.67,14.19085
10479.46,14.19913
10485.25,14.17489
10491.03,14.14172
10496.82,14.08666
10502.6,14.06355
10508.39,14.0643
10514.17,14.04301
10519.96,13.99553
10525.74,13.9469
10531.53,13.89942
10537.32,13.86727
10543.1,13.85708
10548.89,13.76526
10554.67,13.76756
10560.46,13.6488
10566.24,13.63394
10572.03,13.55472
10577.81,13.45712
10583.6,13.42044
10589.38,13.32849
10595.17,13.25496
10600.96,13.18808
10606.74,13.11307
10612.53,13.00184
10618.31,12.92473
10624.1,12.81703
10629.88,12.71673
10635.67,12.56055
10641.45,12.49668
10647.24,12.38301
10653.03,12.27232
10658.81,12.15732
10664.6,12.07966
10670.38,11.99339
10676.17,11.89669
10681.95,11.84787
10687.74,11.7055
10693.52,11.70559
10699.31,11.63245
10705.09,11.64315
10710.88,11.58418
10716.67,11.52542
10722.45,11.522
10728.24,11.51038
10734.02,11.52747
10739.81,11.54645
10745.59,11.52971
10751.38,11.61162
10757.16,11.6659
10762.95,11.69626
10768.74,11.71292
10774.52,11.77478
10780.31,11.83575
10786.09,11.91731
10791.88,11.98758
10797.66,11.99992
10803.45,12.05788
10809.23,12.18821
10815.02,12.25283
10820.8,12.31938
10826.59,12.33449
10832.38,12.45283
10838.16,12.52685
10843.95,12.61934
10849.73,12.70188
10855.52,12.75553
10861.3,12.86142
10867.09,12.92933
10872.87,12.98798
10878.66,13.07243
10884.45,13.06888
10890.23,13.13955
10896.02,13.20881
10901.8,13.29449
10907.59,13.38689
10913.37,13.41186
10919.16,13.42013
10924.94,13.52048
10930.73,13.5201
10936.51,13.62212
10942.3,13.64135
10948.09,13.69559
10953.87,13.81057
10959.66,13.80857
10965.44,13.89851
10971.23,13.94483
10977.01,13.95725
10982.8,14.00359
10988.58,14.02938
10994.37,14.11449
11000.16,14.10224
11005.94,14.16206
11011.73,14.23841
11017.51,14.30682
11023.3,14.26704
11029.08,14.29065
11034.87,14.30742
11040.65,14.36883
11046.44,14.32343
11052.22,14.3929
11058.01,14.40275
11063.79,14.44134
11069.58,14.48784
11075.37,14.4696
11081.15,14.51776
11086.94,14.47548
11092.72,14.47032
11098.51,14.5951
11104.29,14.52627
11110.08,14.50431
11115.87,14.52726
11121.65,14.54034
11127.44,14.64113
11133.22,14.58725
11139.01,14.54105
11144.79,14.63524
11150.58,14.63869
11156.36,14.68094
11162.15,14.74485
11167.93,14.66482
11173.72,14.69818
11179.5,14.72791
11185.29,14.74914
11191.08,14.73303
11196.86,14.80071
11202.65,14.80019
11208.43,14.89189
11214.22,14.9406
11220.0,14.91839
11225.79,14.9562
11231.58,14.94147
11237.36,14.96042
11243.15,14.93972
11248.93,15.07586
11254.72,14.99389
11260.5,15.07257
11266.29,15.04442
11272.07,15.07419
11277.86,15.11843
11283.64,15.22278
11289.43,15.08095
11295.21,15.06831
11301.0,15.12837
11306.79,15.20133
11312.57,15.16647
11318.36,15.16945
11324.14,15.2441
11329.93,15.25515
11335.71,15.31623
11341.5,15.28001
11347.28,15.32709
11353.07,15.36147
11358.86,15.30629
11364.64,15.2437
11370.43,15.23581
11376.21,15.27986
11382.0,15.33829
11387.78,15.38441
11393.57,15.3158
11399.35,15.37094
11405.14,15.36426
11410.92,15.34238
11416.71,15.36907
11422.5,15.38837
11428.28,15.41763
11434.07,15.44399
11439.85,15.41101
11445.64,15.35952
11451.42,15.53495
11457.21,15.40734
11462.99,15.44024
11468.78,15.46335
11474.57,15.46949
11480.35,15.50841
11486.14,15.42306
11491.92,15.49885
11497.71,15.46902
11503.49,15.58815
11509.28,15.52531
11515.06,15.58529
11520.85,15.56117
11526.63,15.63024
11532.42,15.58192
11538.21,15.57325
11543.99,15.504
11549.78,15.68779
11555.56,15.57806
11561.35,15.61954
11567.13,15.50882
11572.92,15.58785
11578.7,15.61317
11584.49,15.65981
11590.28,15.5948
11596.06,15.69878
11601.85,15.68676
11607.63,15.60828
11613.42,15.67876
11619.2,15.62884
11624.99,15.70937
11630.77,15.60327
11636.56,15.68434
11642.34,15.68857
11648.13,15.72574
11653.92,15.68155
11659.7,15.75619
11665.49,15.6042
11671.27,15.68875
11677.06,15.72983
11682.84,15.67192
11688.63,15.71828
11694.41,15.68681
11700.2,15.57931
11705.99,15.65947
11711.77,15.61907
11717.56,15.62657
11723.34,15.7494
11729.13,15.63441
11734.91,15.73667
11740.7,15.69906
11746.48,15.79504
11752.27,15.75104
11758.05,15.79179
11763.84,15.79539
11769.63,15.67306
11775.41,15.71797
11781.2,15.71694
11786.98,15.58781
11792.77,15.62789
11798.55,15.54539
11804.34,15.61022
11810.12,15.79504
11815.91,15.71362
11821.7,15.64626
11827.48,15.64446
11833.27,15.73652
11839.05,15.55618
11844.84,15.60189
11850.62,15.59594
11856.41,15.52198
11862.19,15.66509
11867.98,15.71834
11873.76,15.44759
11879.55,15.59891
11885.34,15.45913
11891.12,15.61694
11896.91,15.43081
11902.69,15.49775
11908.48,15.66808
11914.26,15.31436
11920.05,15.55407
11925.83,15.66631
11931.62,15.56954
11937.41,15.52379
11943.19,15.51653
11948.98,15.48529
11954.76,15.45893
11960.55,15.63332
11966.33,15.44583
11972.12,15.40792
11977.9,15.40556
11983.69,15.51839
11989.47,15.65919
11995.26,15.3856
11999.12,15.57014