File: Data/NIR/S0048HDPE_3.csv
Wavenumber,Intensity
3999.706,3.195312
4005.491,3.195314
4011.277,3.193017
4017.062,3.182885
4022.848,3.176428
4028.633,3.184933
4034.419,3.189535
4040.204,3.185849
4045.99,3.186759
4051.775,3.192125
4057.561,3.195669
4063.346,3.200238
4069.132,3.196019
4074.917,3.202254
4080.703,3.199131
4086.488,3.200671
4092.274,3.196133
4098.059,3.198428
4103.845,3.204527
4109.63,3.204251
4115.416,3.203265
4121.201,3.210355
4126.987,3.206708
4132.772,3.206496
4138.558,3.211156
4144.343,3.215659
4150.129,3.210109
4155.914,3.221138
4161.7,3.221468
4167.485,3.219076
4173.271,3.226798
4179.056,3.228989
4184.842,3.231448
4190.627,3.240744
4196.413,3.241769
4202.198,3.256887
4207.983,3.263619
4213.769,3.272666
4219.555,3.279005
4225.34,3.285286
4231.125,3.291467
4236.911,3.29373
4242.697,3.296653
4248.482,3.291631
4254.268,3.293292
4260.053,3.303195
4265.838,3.321119
4271.624,3.322854
4277.41,3.329221
4283.195,3.335023
4288.98,3.347376
4294.766,3.353998
4300.552,3.354203
4306.337,3.336932
4312.123,3.329701
4317.908,3.318674
4323.693,3.314738
4329.479,3.317437
4335.265,3.321321
4341.05,3.326289
4346.835,3.33374
4352.621,3.349051
4358.407,3.366741
4364.192,3.379601
4369.978,3.387564
4375.763,3.415193
4381.548,3.44057
4387.334,3.47161
4393.12,3.51682
4398.905,3.567937
4404.69,3.639505
4410.476,3.713926
4416.262,3.790132
4422.047,3.851289
4427.833,3.91206
4433.618,3.958167
4439.403,4.00624
4445.189,4.068881
4450.975,4.152472
4456.76,4.2344
4462.545,4.308886
4468.331,4.375556
4474.116,4.429988
4479.902,4.50498
4485.688,4.586436
4491.473,4.667294
4497.258,4.746686
4503.044,4.829532
4508.83,4.915284
4514.615,5.002298
4520.4,5.079694
4526.186,5.16309
4531.971,5.232934
4537.757,5.316642
4543.542,5.395309
4549.328,5.482905
4555.113,5.567868
4560.899,5.664446
4566.685,5.753448
4572.47,5.818049
4578.255,5.881222
4584.041,5.926883
4589.826,5.965654
4595.612,5.993278
4601.397,6.018688
4607.183,6.048356
4612.968,6.07623
4618.754,6.110087
4624.539,6.152275
4630.325,6.185605
4636.11,6.201621
4641.896,6.209571
4647.681,6.206703
4653.467,6.183479
4659.252,6.110081
4665.038,6.011384
4670.823,6.018755
4676.609,6.146639
4682.394,6.258183
4688.18,6.314755
4693.965,6.335897
4699.751,6.339251
4705.536,6.331812
4711.322,6.296935
4717.107,6.255432
4722.893,6.213915
4728.678,6.183128
4734.464,6.167181
4740.249,6.161246
4746.035,6.139771
4751.82,6.11599
4757.605,6.079883
4763.391,6.036754
4769.177,5.968473
4774.962,5.888264
4780.748,5.845333
4786.533,5.83069
4792.319,5.814141
4798.104,5.793162
4803.89,5.754121
4809.675,5.707104
4815.46,5.639709
4821.246,5.582396
4827.032,5.542252
4832.817,5.50043
4838.603,5.45597
4844.388,5.387627
4850.174,5.317134
4855.959,5.258203
4861.745,5.204836
4867.53,5.177724
4873.315,5.184905
4879.101,5.204937
4884.887,5.233458
4890.672,5.267892
4896.458,5.287954
4902.243,5.311985
4908.028,5.324089
4913.814,5.330516
4919.6,5.331125
4925.385,5.329548
4931.17,5.328868
4936.956,5.326621
4942.742,5.308722
4948.527,5.260148
4954.313,5.157992
4960.098,5.021613
4965.883,4.994506
4971.669,5.058647
4977.455,5.092112
4983.24,5.135404
4989.025,5.190106
4994.811,5.253943
5000.597,5.337785
5006.382,5.401007
5012.167,5.418183
5017.953,5.418644
5023.738,5.440813
5029.524,5.470019
5035.31,5.485505
5041.095,5.486711
5046.88,5.494733
5052.666,5.471111
5058.451,5.430143
5064.237,5.404355
5070.022,5.415862
5075.808,5.418696
5081.593,5.409976
5087.379,5.391691
5093.165,5.378903
5098.95,5.369937
5104.735,5.380022
5110.521,5.400185
5116.307,5.417227
5122.092,5.430843
5127.877,5.446291
5133.663,5.456927
5139.448,5.443085
5145.234,5.4158
5151.02,5.376508
5156.805,5.349733
5162.59,5.346519
5168.376,5.35752
5174.161,5.349944
5179.947,5.33984
5185.732,5.332233
5191.518,5.331361
5197.303,5.358183
5203.089,5.363794
5208.874,5.365705
5214.66,5.346017
5220.445,5.353307
5226.231,5.37183
5232.016,5.377551
5237.802,5.386452
5243.587,5.417147
5249.373,5.422133
5255.158,5.437245
5260.944,5.448781
5266.729,5.445214
5272.515,5.420771
5278.3,5.423787
5284.086,5.440476
5289.871,5.442896
5295.657,5.405381
5301.442,5.365464
5307.228,5.337081
5313.013,5.356328
5318.799,5.459114
5324.584,5.517549
5330.37,5.519866
5336.155,5.506996
5341.94,5.442287
5347.726,5.353061
5353.512,5.285295
5359.297,5.206182
5365.083,5.15906
5370.868,5.102861
5376.654,5.081484
5382.439,5.060045
5388.225,5.032367
5394.01,5.00325
5399.796,4.935432
5405.581,4.883708
5411.367,4.815988
5417.152,4.702547
5422.938,4.669907
5428.723,4.659148
5434.509,4.643351
5440.294,4.646615
5446.08,4.618809
5451.865,4.594856
5457.65,4.587967
5463.436,4.576274
5469.222,4.559025
5475.007,4.53733
5480.792,4.482021
5486.578,4.447475
5492.363,4.438849
5498.149,4.442216
5503.935,4.456553
5509.72,4.475679
5515.505,4.495627
5521.291,4.502375
5527.077,4.494317
5532.862,4.489912
5538.647,4.478689
5544.433,4.460351
5550.219,4.45359
5556.004,4.446521
5561.79,4.470903
5567.575,4.508583
5573.36,4.562422
5579.146,4.63205
5584.932,4.682189
5590.717,4.694561
5596.502,4.676586
5602.288,4.63472
5608.073,4.576422
5613.859,4.51624
5619.645,4.46172
5625.43,4.41008
5631.215,4.365425
5637.001,4.309326
5642.786,4.235801
5648.572,4.117155
5654.357,3.950979
5660.143,3.830676
5665.929,3.815672
5671.714,3.874804
5677.5,3.965787
5683.285,4.032059
5689.07,4.085863
5694.856,4.154653
5700.642,4.249723
5706.427,4.343579
5712.212,4.386722
5717.998,4.361955
5723.783,4.224749
5729.569,4.025953
5735.354,3.991358
5741.14,3.973218
5746.925,3.898175
5752.711,3.820937
5758.496,3.753816
5764.282,3.688191
5770.067,3.631789
5775.853,3.619744
5781.638,3.643569
5787.424,3.685781
5793.209,3.726159
5798.995,3.755842
5804.78,3.794575
5810.566,3.833204
5816.352,3.880393
5822.137,3.929152
5827.922,3.991458
5833.708,4.068367
5839.493,4.150813
5845.279,4.268242
5851.064,4.449522
5856.85,4.705415
5862.635,5.041312
5868.421,5.42345
5874.206,5.786775
5879.992,6.12003
5885.777,6.397554
5891.563,6.627389
5897.348,6.8212
5903.134,7.003177
5908.919,7.177501
5914.705,7.343777
5920.49,7.506973
5926.276,7.673923
5932.061,7.841763
5937.847,8.002679
5943.632,8.15702
5949.418,8.304262
5955.203,8.473728
5960.989,8.692394
5966.774,8.963784
5972.56,9.230036
5978.345,9.479983
5984.131,9.709627
5989.916,9.917678
5995.702,10.11342
6001.487,10.29882
6007.272,10.47173
6013.058,10.64424
6018.844,10.8165
6024.629,10.98722
6030.415,11.13792
6036.2,11.26983
6041.985,11.3808
6047.771,11.48737
6053.557,11.58742
6059.342,11.67626
6065.128,11.7445
6070.913,11.82224
6076.698,11.88442
6082.484,11.95263
6088.27,11.99872
6094.055,12.01812
6099.841,11.95553
6105.626,11.87767
6111.412,11.90956
6117.197,12.01395
6122.982,12.11965
6128.768,12.20463
6134.554,12.27854
6140.339,12.34744
6146.125,12.41086
6151.91,12.45536
6157.695,12.50813
6163.481,12.55601
6169.267,12.61098
6175.052,12.66228
6180.837,12.69534
6186.623,12.72021
6192.408,12.73962
6198.194,12.76898
6203.979,12.79114
6209.765,12.82108
6215.551,12.84401
6221.336,12.86498
6227.121,12.89275
6232.907,12.91131
6238.692,12.92375
6244.478,12.92692
6250.264,12.92794
6256.049,12.92927
6261.834,12.93305
6267.62,12.94654
6273.405,12.95194
6279.191,12.95702
6284.977,12.9615
6290.762,12.96298
6296.547,12.96526
6302.333,12.97798
6308.118,12.98093
6313.904,12.97521
6319.689,12.96295
6325.475,12.94556
6331.26,12.90939
6337.046,12.87573
6342.831,12.83899
6348.617,12.79565
6354.402,12.74864
6360.188,12.70717
6365.974,12.63917
6371.759,12.5422
6377.544,12.46639
6383.33,12.43508
6389.115,12.41825
6394.901,12.38726
6400.687,12.32768
6406.472,12.22841
6412.257,12.11056
6418.043,12.02604
6423.828,11.98593
6429.614,11.9525
6435.399,11.90593
6441.185,11.80393
6446.97,11.67865
6452.756,11.53868
6458.541,11.383
6464.327,11.15241
6470.112,10.78998
6475.897,10.34895
6481.684,10.07014
6487.469,10.10663
6493.254,10.28447
6499.04,10.47112
6504.825,10.62765
6510.61,10.75559
6516.396,10.84418
6522.182,10.92252
6527.967,10.99287
6533.753,11.04666
6539.538,11.10096
6545.324,11.14483
6551.109,11.18702
6556.895,11.22322
6562.68,11.26165
6568.466,11.31416
6574.251,11.36943
6580.037,11.41527
6585.822,11.43407
6591.607,11.4469
6597.393,11.45644
6603.179,11.45639
6608.964,11.45222
6614.75,11.44814
6620.535,11.44
6626.32,11.42491
6632.106,11.39954
6637.892,11.38233
6643.677,11.3472
6649.463,11.31834
6655.248,11.26729
6661.034,11.23092
6666.819,11.1764
6672.604,11.14703
6678.39,11.09236
6684.176,11.0458
6689.961,10.98108
6695.747,10.91316
6701.532,10.84637
6707.317,10.76276
6713.103,10.68186
6718.889,10.59256
6724.674,10.51836
6730.459,10.45309
6736.245,10.39513
6742.03,10.32484
6747.816,10.25224
6753.602,10.19151
6759.387,10.11845
6765.173,10.05998
6770.958,9.966061
6776.743,9.866757
6782.529,9.740627
6788.314,9.603598
6794.1,9.453593
6799.886,9.297344
6805.671,9.147669
6811.457,9.018006
6817.242,8.878837
6823.027,8.727984
6828.813,8.552599
6834.599,8.418158
6840.384,8.344231
6846.169,8.290823
6851.955,8.230778
6857.74,8.169306
6863.526,8.104892
6869.312,8.041952
6875.097,7.976889
6880.882,7.889338
6886.668,7.785767
6892.453,7.690403
6898.239,7.607272
6904.024,7.548362
6909.81,7.499408
6915.596,7.440265
6921.381,7.349007
6927.166,7.244781
6932.952,7.116479
6938.737,6.952475
6944.523,6.806871
6950.309,6.725915
6956.094,6.709492
6961.879,6.72546
6967.665,6.743352
6973.45,6.774897
6979.236,6.758297
6985.021,6.743427
6990.807,6.700818
6996.592,6.646813
7002.378,6.575437
7008.163,6.497267
7013.949,6.425766
7019.734,6.36934
7025.52,6.352493
7031.305,6.399878
7037.091,6.43799
7042.876,6.447779
7048.662,6.361373
7054.447,6.203521
7060.232,6.022842
7066.019,6.023624
7071.804,6.253572
7077.589,6.54789
7083.375,6.757843
7089.16,6.857967
7094.946,6.939197
7100.731,7.010317
7106.517,7.154459
7112.302,7.302026
7118.088,7.449344
7123.873,7.550993
7129.659,7.580783
7135.444,7.521175
7141.229,7.406271
7147.015,7.239532
7152.801,6.980292
7158.586,6.542484
7164.372,5.912318
7170.157,5.455702
7175.942,5.504415
7181.729,5.93378
7187.514,6.387208
7193.299,6.821975
7199.085,7.198721
7204.87,7.5699
7210.655,7.869164
7216.441,8.134084
7222.227,8.411253
7228.012,8.757374
7233.798,9.091747
7239.583,9.377884
7245.369,9.649875
7251.154,9.95934
7256.939,10.21921
7262.725,10.50417
7268.511,10.76869
7274.296,11.04071
7280.082,11.28741
7285.867,11.54237
7291.652,11.77683
7297.438,12.01387
7303.224,12.23339
7309.009,12.49727
7314.794,12.71255
7320.58,12.91617
7326.365,13.12852
7332.151,13.24588
7337.937,13.40111
7343.722,13.50699
7349.508,13.58526
7355.293,13.68163
7361.079,13.74067
7366.864,13.81229
7372.649,13.86841
7378.435,13.9196
7384.221,13.97589
7390.006,14.01459
7395.792,14.0457
7401.577,14.07687
7407.362,14.11172
7413.148,14.1359
7418.934,14.15566
7424.719,14.17452
7430.504,14.19453
7436.29,14.20384
7442.075,14.22586
7447.861,14.24906
7453.646,14.26998
7459.432,14.2871
7465.218,14.29534
7471.003,14.30339
7476.788,14.30568
7482.574,14.30872
7488.359,14.30175
7494.145,14.2913
7499.931,14.27493
7505.716,14.26935
7511.501,14.25715
7517.287,14.24864
7523.072,14.24469
7528.858,14.22624
7534.644,14.21683
7540.429,14.19386
7546.214,14.17448
7552.0,14.15329
7557.785,14.12653
7563.571,14.11167
7569.356,14.08579
7575.142,14.06357
7580.927,14.04431
7586.713,14.01368
7592.498,13.98607
7598.284,13.9516
7604.069,13.9251
7609.854,13.89088
7615.641,13.84947
7621.426,13.81215
7627.211,13.76579
7632.997,13.72526
7638.782,13.67699
7644.568,13.62365
7650.354,13.59511
7656.139,13.54871
7661.924,13.51743
7667.71,13.47935
7673.495,13.44908
7679.281,13.43065
7685.066,13.4032
7690.852,13.38526
7696.637,13.36737
7702.423,13.33929
7708.208,13.3017
7713.994,13.27841
7719.779,13.26071
7725.564,13.23509
7731.35,13.1975
7737.136,13.18432
7742.921,13.16572
7748.707,13.13999
7754.492,13.11238
7760.277,13.06034
7766.063,13.02447
7771.849,12.99966
7777.634,12.98312
7783.42,12.97047
7789.205,12.96135
7794.991,12.94008
7800.776,12.91297
7806.562,12.87208
7812.347,12.83862
7818.133,12.81924
7823.918,12.78124
7829.704,12.74162
7835.489,12.71002
7841.274,12.6702
7847.06,12.62946
7852.846,12.5758
7858.631,12.52299
7864.417,12.4641
7870.202,12.41988
7875.987,12.34873
7881.773,12.2848
7887.559,12.23354
7893.344,12.15744
7899.13,12.11797
7904.915,12.02466
7910.7,11.95121
7916.486,11.87875
7922.271,11.814
7928.057,11.72523
7933.843,11.64526
7939.628,11.56873
7945.414,11.47001
7951.199,11.38702
7956.984,11.28438
7962.77,11.17549
7968.556,11.07674
7974.341,10.97972
7980.126,10.8792
7985.912,10.7611
7991.697,10.65449
7997.483,10.54413
8003.269,10.41955
8009.054,10.30227
8014.839,10.17468
8020.625,10.04041
8026.41,9.923447
8032.196,9.775777
8037.981,9.639077
8043.767,9.50016
8049.553,9.33913
8055.338,9.188519
8061.124,9.03072
8066.909,8.875182
8072.694,8.719113
8078.48,8.562782
8084.266,8.394774
8090.051,8.221294
8095.836,8.069378
8101.622,7.902146
8107.407,7.717318
8113.192,7.550156
8118.979,7.351074
8124.764,7.18298
8130.55,6.985158
8136.335,6.794541
8142.12,6.602841
8147.906,6.414688
8153.691,6.231167
8159.477,6.056837
8165.263,5.856919
8171.048,5.677856
8176.833,5.510147
8182.619,5.350957
8188.404,5.219513
8194.189,5.098746
8199.976,5.004518
8205.761,4.927476
8211.546,4.864376
8217.332,4.846379
8223.117,4.836444
8228.902,4.845299
8234.688,4.865479
8240.474,4.883007
8246.259,4.885158
8252.045,4.910938
8257.83,4.955226
8263.616,4.997752
8269.401,5.068367
8275.187,5.148838
8280.973,5.240567
8286.758,5.353549
8292.543,5.479171
8298.329,5.61274
8304.114,5.728179
8309.899,5.85874
8315.686,6.002987
8321.471,6.124008
8327.256,6.248102
8333.042,6.381948
8338.827,6.518911
8344.612,6.696564
8350.398,6.866602
8356.184,7.053695
8361.969,7.238578
8367.755,7.440486
8373.54,7.605268
8379.325,7.770996
8385.111,7.939203
8390.896,8.057482
8396.683,8.137174
8402.468,8.170171
8408.253,8.165385
8414.039,8.120708
8419.824,8.080035
8425.609,8.072765
8431.396,8.13412
8437.181,8.244113
8442.966,8.437704
8448.752,8.652868
8454.537,8.85137
8460.322,9.012591
8466.108,9.150748
8471.894,9.284474
8477.679,9.463403
8483.465,9.653744
8489.25,9.841199
8495.035,9.994326
8500.821,10.08634
8506.606,10.14826
8512.392,10.17414
8518.178,10.23048
8523.963,10.31491
8529.748,10.35563
8535.534,10.36779
8541.319,10.30184
8547.105,10.16454
8552.891,9.945763
8558.676,9.687285
8564.462,9.528229
8570.247,9.635415
8576.032,9.889125
8581.818,10.17175
8587.604,10.47783
8593.389,10.84245
8599.175,11.17476
8604.96,11.50893
8610.745,11.82657
8616.531,12.11051
8622.316,12.38009
8628.102,12.60291
8633.888,12.80278
8639.673,12.98878
8645.458,13.16475
8651.244,13.32919
8657.029,13.45236
8662.814,13.57064
8668.601,13.68499
8674.386,13.80667
8680.172,13.93424
8685.957,14.02496
8691.742,14.14857
8697.528,14.28711
8703.313,14.40796
8709.099,14.52358
8714.885,14.65552
8720.67,14.77834
8726.455,14.88499
8732.241,15.05323
8738.026,15.16281
8743.812,15.28568
8749.598,15.39917
8755.383,15.51342
8761.168,15.60774
8766.954,15.68684
8772.739,15.77297
8778.524,15.85856
8784.311,15.90677
8790.096,15.97947
8795.881,16.01053
8801.667,16.06645
8807.452,16.10914
8813.237,16.13449
8819.023,16.15799
8824.809,16.18449
8830.595,16.20898
8836.38,16.2263
8842.165,16.2378
8847.951,16.26064
8853.736,16.25526
8859.521,16.27898
8865.308,16.30089
8871.093,16.30443
8876.878,16.30402
8882.664,16.29167
8888.449,16.28847
8894.234,16.29796
8900.021,16.30599
8905.806,16.28407
8911.591,16.25803
8917.377,16.25527
8923.162,16.24711
8928.947,16.24269
8934.733,16.21821
8940.519,16.21733
8946.304,16.21459
8952.09,16.22951
8957.875,16.21831
8963.661,16.21626
8969.446,16.22542
8975.231,16.23733
8981.018,16.24083
8986.803,16.25194
8992.588,16.26027
8998.374,16.26581
9004.159,16.28965
9009.944,16.29204
9015.73,16.3186
9021.516,16.31805
9027.301,16.3324
9033.087,16.36332
9038.872,16.35178
9044.657,16.35939
9050.443,16.37139
9056.229,16.3686
9062.014,16.39958
9067.8,16.39461
9073.585,16.39315
9079.37,16.4011
9085.156,16.40289
9090.941,16.40173
9096.727,16.40907
9102.513,16.42549
9108.298,16.41551
9114.084,16.4141
9119.869,16.40483
9125.654,16.40341
9131.44,16.39297
9137.226,16.39665
9143.011,16.37977
9148.797,16.38227
9154.582,16.35784
9160.367,16.36428
9166.153,16.33289
9171.938,16.31313
9177.724,16.3213
9183.51,16.28179
9189.295,16.2828
9195.08,16.25426
9200.866,16.24666
9206.651,16.23677
9212.437,16.23728
9218.223,16.22239
9224.008,16.2064
9229.793,16.19541
9235.579,16.19188
9241.364,16.16531
9247.15,16.17573
9252.936,16.16917
9258.721,16.14484
9264.507,16.13096
9270.292,16.14404
9276.077,16.11329
9281.863,16.10622
9287.648,16.07266
9293.434,16.09828
9299.22,16.07102
9305.005,16.08508
9310.79,16.08097
9316.576,16.08651
9322.361,16.0948
9328.146,16.09264
9333.933,16.07742
9339.718,16.0919
9345.503,16.07964
9351.289,16.07286
9357.074,16.02728
9362.859,16.01226
9368.646,15.99843
9374.431,15.97377
9380.217,15.93351
9386.002,15.9438
9391.787,15.91721
9397.573,15.89482
9403.358,15.86291
9409.144,15.84547
9414.93,15.82146
9420.715,15.78309
9426.5,15.75354
9432.286,15.73324
9438.071,15.70618
9443.856,15.64005
9449.643,15.63217
9455.428,15.60089
9461.213,15.56112
9466.999,15.53586
9472.784,15.46749
9478.569,15.4821
9484.355,15.46494
9490.141,15.44788
9495.926,15.42371
9501.712,15.41083
9507.497,15.38415
9513.282,15.37286
9519.068,15.35979
9524.854,15.34496
9530.64,15.31282
9536.425,15.30795
9542.21,15.26165
9547.996,15.23165
9553.781,15.22996
9559.566,15.16846
9565.353,15.15239
9571.138,15.12787
9576.923,15.11445
9582.709,15.09363
9588.494,15.06273
9594.279,15.05688
9600.065,15.05211
9605.851,15.06698
9611.636,15.10331
9617.422,15.15546
9623.207,15.16631
9628.992,15.18911
9634.778,15.25815
9640.563,15.27659
9646.349,15.3353
9652.135,15.378
9657.92,15.4486
9663.706,15.48741
9669.491,15.53975
9675.276,15.56854
9681.063,15.60387
9686.848,15.68089
9692.633,15.67573
9698.419,15.72885
9704.204,15.77939
9709.989,15.81824
9715.775,15.90305
9721.561,15.93727
9727.346,15.99665
9733.132,16.03636
9738.917,16.08211
9744.702,16.11208
9750.488,16.16049
9756.273,16.20528
9762.059,16.20799
9767.845,16.21561
9773.63,16.21453
9779.415,16.20929
9785.201,16.23566
9790.986,16.2576
9796.771,16.26122
9802.558,16.23876
9808.343,16.23274
9814.129,16.22841
9819.914,16.22589
9825.699,16.23688
9831.485,16.25182
9837.271,16.28887
9843.056,16.32399
9848.842,16.34106
9854.627,16.3889
9860.412,16.43433
9866.198,16.52219
9871.983,16.53816
9877.769,16.62584
9883.555,16.68671
9889.34,16.72351
9895.125,16.75423
9900.911,16.76855
9906.696,16.82585
9912.481,16.85172
9918.268,16.88134
9924.053,16.92107
9929.838,16.92494
9935.624,16.93859
9941.409,17.0276
9947.195,17.05116
9952.98,17.06692
9958.766,17.11095
9964.552,17.10359
9970.337,17.16384
9976.122,17.1561
9981.908,17.1907
9987.693,17.20875
9993.479,17.25603
9999.265,17.25706
10005.05,17.25245
10010.83,17.28266
10016.62,17.29786
10022.41,17.32725
10028.19,17.335
10033.98,17.37022
10039.76,17.40219
10045.55,17.42374
10051.33,17.45262
10057.12,17.48308
10062.9,17.47169
10068.69,17.49519
10074.48,17.51861
10080.26,17.49141
10086.05,17.54646
10091.83,17.53092
10097.62,17.4986
10103.4,17.56665
10109.19,17.5405
10114.97,17.52858
10120.76,17.54148
10126.54,17.60459
10132.33,17.5521
10138.12,17.62898
10143.9,17.56515
10149.69,17.58938
10155.47,17.60177
10161.26,17.57662
10167.04,17.6149
10172.83,17.58837
10178.61,17.57331
10184.4,17.63178
10190.19,17.61486
10195.97,17.63351
10201.76,17.59921
10207.54,17.5943
10213.33,17.62422
10219.11,17.61515
10224.9,17.64197
10230.68,17.5993
10236.47,17.58751
10242.25,17.57036
10248.04,17.57332
10253.83,17.56845
10259.61,17.58401
10265.4,17.55124
10271.18,17.56931
10276.97,17.5729
10282.75,17.55091
10288.54,17.5328
10294.32,17.5462
10300.11,17.54101
10305.9,17.56223
10311.68,17.52352
10317.47,17.49876
10323.25,17.51682
10329.04,17.51219
10334.82,17.50405
10340.61,17.49324
10346.39,17.48519
10352.18,17.48157
10357.96,17.50163
10363.75,17.47878
10369.54,17.48537
10375.32,17.44297
10381.11,17.45478
10386.89,17.43679
10392.68,17.39675
10398.46,17.40941
10404.25,17.4446
10410.03,17.39669
10415.82,17.33715
10421.61,17.42273
10427.39,17.32053
10433.18,17.3153
10438.96,17.27903
10444.75,17.34944
10450.53,17.26226
10456.32,17.28084
10462.1,17.24332
10467.89,17.16883
10473.67,17.18202
10479.46,17.12803
10485.25,17.11412
10491.03,17.11683
10496.82,16.99041
10502.6,16.94728
10508.39,16.93522
10514.17,16.91232
10519.96,16.82433
10525.74,16.73885
10531.53,16.70404
10537.32,16.67351
10543.1,16.64427
10548.89,16.54208
10554.67,16.49882
10560.46,16.35025
10566.24,16.28025
10572.03,16.21622
10577.81,16.02864
10583.6,15.93519
10589.38,15.88187
10595.17,15.79228
10600.96,15.64013
10606.74,15.52499
10612.53,15.38594
10618.31,15.24621
10624.1,15.11419
10629.88,14.97297
10635.67,14.79913
10641.45,14.67622
10647.24,14.52298
10653.03,14.36217
10658.81,14.17896
10664.6,14.04686
10670.38,13.92338
10676.17,13.77881
10681.95,13.70102
10687.74,13.5166
10693.52,13.47101
10699.31,13.37115
10705.09,13.40494
10710.88,13.33679
10716.67,13.26048
10722.45,13.26828
10728.24,13.28537
10734.02,13.24289
10739.81,13.27625
10745.59,13.32368
10751.38,13.4223
10757.16,13.44442
10762.95,13.51375
10768.74,13.63089
10774.52,13.69351
10780.31,13.79152
10786.09,13.88341
10791.88,13.95115
10797.66,14.07451
10803.45,14.16935
10809.23,14.33635
10815.02,14.3962
10820.8,14.50008
10826.59,14.60183
10832.38,14.75743
10838.16,14.89065
10843.95,15.01389
10849.73,15.04172
10855.52,15.13091
10861.3,15.31691
10867.09,15.5113
10872.87,15.54056
10878.66,15.70902
10884.45,15.7413
10890.23,15.83817
10896.02,15.91464
10901.8,16.05618
10907.59,16.12132
10913.37,16.22408
10919.16,16.30049
10924.94,16.40885
10930.73,16.44733
10936.51,16.60842
10942.3,16.64994
10948.09,16.71316
10953.87,16.81597
10959.66,16.88229
10965.44,17.02489
10971.23,17.0764
10977.01,17.06849
10982.8,17.16421
10988.58,17.21345
10994.37,17.26852
11000.16,17.3046
11005.94,17.32866
11011.73,17.39727
11017.51,17.47811
11023.3,17.55168
11029.08,17.52369
11034.87,17.50471
11040.65,17.64526
11046.44,17.58229
11052.22,17.64297
11058.01,17.69482
11063.79,17.72902
11069.58,17.71154
11075.37,17.74528
11081.15,17.7487
11086.94,17.6854
11092.72,17.72287
11098.51,17.78268
11104.29,17.76757
11110.08,17.78615
11115.87,17.79379
11121.65,17.75722
11127.44,17.75146
11133.22,17.76588
11139.01,17.81645
11144.79,17.91588
11150.58,17.87869
11156.36,17.96892
11162.15,18.01068
11167.93,17.9231
11173.72,17.98735
11179.5,17.97918
11185.29,18.05839
11191.08,18.02847
11196.86,18.15908
11202.65,18.12934
11208.43,18.24024
11214.22,18.29435
11220.0,18.24598
11225.79,18.26096
11231.58,18.30944
11237.36,18.39201
11243.15,18.34997
11248.93,18.4404
11254.72,18.42431
11260.5,18.55525
11266.29,18.4502
11272.07,18.49587
11277.86,18.56203
11283.64,18.5491
11289.43,18.57051
11295.21,18.55989
11301.0,18.58344
11306.79,18.59273
11312.57,18.657
11318.36,18.61381
11324.14,18.64552
11329.93,18.65893
11335.71,18.70835
11341.5,18.65755
11347.28,18.69219
11353.07,18.75668
11358.86,18.71177
11364.64,18.71904
11370.43,18.65695
11376.21,18.68725
11382.0,18.78093
11387.78,18.77239
11393.57,18.84723
11399.35,18.80061
11405.14,18.80781
11410.92,18.85318
11416.71,18.80377
11422.5,18.8077
11428.28,18.83546
11434.07,18.87342
11439.85,18.90224
11445.64,18.82985
11451.42,18.93074
11457.21,18.8832
11462.99,18.8772
11468.78,18.94372
11474.57,18.97205
11480.35,19.00188
11486.14,18.87525
11491.92,18.98743
11497.71,19.02888
11503.49,19.01051
11509.28,18.9931
11515.06,19.11582
11520.85,18.99911
11526.63,19.11233
11532.42,19.2178
11538.21,19.09419
11543.99,19.0181
11549.78,19.16271
11555.56,19.09355
11561.35,19.11655
11567.13,19.11262
11572.92,19.0316
11578.7,19.23576
11584.49,19.17223
11590.28,19.20808
11596.06,19.19967
11601.85,19.27189
11607.63,19.08726
11613.42,19.1728
11619.2,19.20411
11624.99,19.22643
11630.77,19.23306
11636.56,19.22597
11642.34,19.19792
11648.13,19.19402
11653.92,19.26344
11659.7,19.30479
11665.49,19.13226
11671.27,19.30094
11677.06,19.19159
11682.84,19.17857
11688.63,19.25195
11694.41,19.14591
11700.2,19.23028
11705.99,19.22334
11711.77,19.26297
11717.56,19.2375
11723.34,19.22355
11729.13,19.13832
11734.91,19.17998
11740.7,19.30952
11746.48,19.35535
11752.27,19.17845
11758.05,19.23553
11763.84,19.25987
11769.63,19.24107
11775.41,19.19185
11781.2,19.11141
11786.98,19.21934
11792.77,19.23593
11798.55,19.12048
11804.34,19.17422
11810.12,19.18679
11815.91,19.24476
11821.7,19.23583
11827.48,19.18937
11833.27,19.25677
11839.05,19.17827
11844.84,19.27179
11850.62,19.08184
11856.41,19.24079
11862.19,19.08464
11867.98,19.38148
11873.76,19.26686
11879.55,19.37921
11885.34,19.10965
11891.12,19.30426
11896.91,19.26892
11902.69,19.30153
11908.48,19.46022
11914.26,19.25986
11920.05,19.40933
11925.83,19.31382
11931.62,19.34567
11937.41,19.32867
11943.19,19.3596
11948.98,19.50865
11954.76,19.45914
11960.55,19.56774
11966.33,19.43376
11972.12,19.31783
11977.9,19.48498
11983.69,19.41969
11989.47,19.54663
11995.26,19.42344
11999.12,19.45622