File: Data/NIR/S0048HDPE_2.csv
Wavenumber,Intensity
3999.706,3.241219
4005.491,3.237775
4011.277,3.229807
4017.062,3.213594
4022.848,3.207942
4028.633,3.216365
4034.419,3.220703
4040.204,3.222885
4045.99,3.219773
4051.775,3.224736
4057.561,3.222042
4063.346,3.228756
4069.132,3.22336
4074.917,3.223283
4080.703,3.226941
4086.488,3.217963
4092.274,3.219412
4098.059,3.216736
4103.845,3.219753
4109.63,3.219033
4115.416,3.221135
4121.201,3.222919
4126.987,3.223316
4132.772,3.227119
4138.558,3.228534
4144.343,3.230897
4150.129,3.230429
4155.914,3.233027
4161.7,3.237005
4167.485,3.237627
4173.271,3.242434
4179.056,3.245603
4184.842,3.251398
4190.627,3.256585
4196.413,3.260169
4202.198,3.277031
4207.983,3.283154
4213.769,3.294449
4219.555,3.292546
4225.34,3.303263
4231.125,3.316893
4236.911,3.319893
4242.697,3.312443
4248.482,3.305449
4254.268,3.307722
4260.053,3.321262
4265.838,3.346091
4271.624,3.353137
4277.41,3.359998
4283.195,3.371082
4288.98,3.384697
4294.766,3.395549
4300.552,3.393478
4306.337,3.374443
4312.123,3.353119
4317.908,3.333436
4323.693,3.325697
4329.479,3.329293
4335.265,3.33982
4341.05,3.341638
4346.835,3.361393
4352.621,3.385435
4358.407,3.408352
4364.192,3.429317
4369.978,3.443795
4375.763,3.469655
4381.548,3.500837
4387.334,3.533088
4393.12,3.577974
4398.905,3.623689
4404.69,3.682807
4410.476,3.746212
4416.262,3.801413
4422.047,3.843362
4427.833,3.88721
4433.618,3.91615
4439.403,3.948679
4445.189,3.987646
4450.975,4.044159
4456.76,4.098458
4462.545,4.143377
4468.331,4.184383
4474.116,4.217537
4479.902,4.264262
4485.688,4.317693
4491.473,4.368175
4497.258,4.419572
4503.044,4.472143
4508.83,4.524581
4514.615,4.580106
4520.4,4.633721
4526.186,4.681516
4531.971,4.736876
4537.757,4.791094
4543.542,4.845736
4549.328,4.901478
4555.113,4.96418
4560.899,5.029901
4566.685,5.092177
4572.47,5.134337
4578.255,5.177928
4584.041,5.208753
4589.826,5.236476
4595.612,5.255251
4601.397,5.27093
4607.183,5.291022
4612.968,5.311203
4618.754,5.336155
4624.539,5.362743
4630.325,5.385393
4636.11,5.395543
4641.896,5.401388
4647.681,5.3971
4653.467,5.386198
4659.252,5.328474
4665.038,5.252011
4670.823,5.263091
4676.609,5.350902
4682.394,5.428741
4688.18,5.468803
4693.965,5.483048
4699.751,5.48713
4705.536,5.480968
4711.322,5.455898
4717.107,5.420619
4722.893,5.393415
4728.678,5.37079
4734.464,5.358842
4740.249,5.356041
4746.035,5.339363
4751.82,5.317166
4757.605,5.293789
4763.391,5.262462
4769.177,5.21503
4774.962,5.157649
4780.748,5.125558
4786.533,5.116536
4792.319,5.102458
4798.104,5.088355
4803.89,5.058247
4809.675,5.02532
4815.46,4.981595
4821.246,4.943856
4827.032,4.914596
4832.817,4.884827
4838.603,4.853411
4844.388,4.803834
4850.174,4.762591
4855.959,4.718899
4861.745,4.684745
4867.53,4.665766
4873.315,4.666665
4879.101,4.684253
4884.887,4.699749
4890.672,4.720845
4896.458,4.736261
4902.243,4.745545
4908.028,4.756821
4913.814,4.763274
4919.6,4.75695
4925.385,4.756525
4931.17,4.756467
4936.956,4.756722
4942.742,4.740955
4948.527,4.707101
4954.313,4.642729
4960.098,4.550399
4965.883,4.535023
4971.669,4.571671
4977.455,4.59402
4983.24,4.618925
4989.025,4.655195
4994.811,4.695724
5000.597,4.753426
5006.382,4.793169
5012.167,4.802818
5017.953,4.801468
5023.738,4.816403
5029.524,4.839998
5035.31,4.845416
5041.095,4.850245
5046.88,4.850224
5052.666,4.83258
5058.451,4.805022
5064.237,4.792062
5070.022,4.796549
5075.808,4.796517
5081.593,4.79155
5087.379,4.780324
5093.165,4.769909
5098.95,4.763682
5104.735,4.770004
5110.521,4.785161
5116.307,4.79752
5122.092,4.801986
5127.877,4.818265
5133.663,4.823533
5139.448,4.814707
5145.234,4.795399
5151.02,4.770542
5156.805,4.750582
5162.59,4.749799
5168.376,4.75588
5174.161,4.749352
5179.947,4.744905
5185.732,4.740738
5191.518,4.736948
5197.303,4.760078
5203.089,4.757865
5208.874,4.763301
5214.66,4.743752
5220.445,4.750339
5226.231,4.767164
5232.016,4.771442
5237.802,4.773382
5243.587,4.80161
5249.373,4.802007
5255.158,4.810967
5260.944,4.8172
5266.729,4.814145
5272.515,4.797388
5278.3,4.795312
5284.086,4.815313
5289.871,4.817253
5295.657,4.784969
5301.442,4.760566
5307.228,4.743155
5313.013,4.751285
5318.799,4.820774
5324.584,4.863546
5330.37,4.866555
5336.155,4.862309
5341.94,4.819268
5347.726,4.757054
5353.512,4.718445
5359.297,4.656621
5365.083,4.622165
5370.868,4.586175
5376.654,4.578351
5382.439,4.562052
5388.225,4.539663
5394.01,4.527161
5399.796,4.480369
5405.581,4.447129
5411.367,4.41211
5417.152,4.32756
5422.938,4.306241
5428.723,4.308936
5434.509,4.295122
5440.294,4.298162
5446.08,4.28043
5451.865,4.260087
5457.65,4.258027
5463.436,4.251911
5469.222,4.238022
5475.007,4.230807
5480.792,4.184212
5486.578,4.165732
5492.363,4.16676
5498.149,4.16395
5503.935,4.173911
5509.72,4.185154
5515.505,4.198211
5521.291,4.206489
5527.077,4.197415
5532.862,4.193792
5538.647,4.189177
5544.433,4.178021
5550.219,4.172043
5556.004,4.17125
5561.79,4.184515
5567.575,4.207867
5573.36,4.245793
5579.146,4.292822
5584.932,4.32556
5590.717,4.335351
5596.502,4.322886
5602.288,4.295978
5608.073,4.254778
5613.859,4.221038
5619.645,4.1838
5625.43,4.144865
5631.215,4.119055
5637.001,4.082689
5642.786,4.035011
5648.572,3.959063
5654.357,3.846196
5660.143,3.759311
5665.929,3.749232
5671.714,3.793252
5677.5,3.850856
5683.285,3.901852
5689.07,3.935872
5694.856,3.982525
5700.642,4.049434
5706.427,4.109898
5712.212,4.134603
5717.998,4.117883
5723.783,4.029185
5729.569,3.895511
5735.354,3.869908
5741.14,3.860276
5746.925,3.805933
5752.711,3.758038
5758.496,3.702575
5764.282,3.654805
5770.067,3.614184
5775.853,3.600097
5781.638,3.618681
5787.424,3.650862
5793.209,3.685715
5798.995,3.70234
5804.78,3.732467
5810.566,3.765457
5816.352,3.794904
5822.137,3.830973
5827.922,3.873946
5833.708,3.92807
5839.493,3.986492
5845.279,4.068793
5851.064,4.190711
5856.85,4.359644
5862.635,4.591585
5868.421,4.859429
5874.206,5.117357
5879.992,5.358969
5885.777,5.562507
5891.563,5.738811
5897.348,5.881419
5903.134,6.024816
5908.919,6.162189
5914.705,6.290977
5920.49,6.420487
5926.276,6.550798
5932.061,6.690782
5937.847,6.81722
5943.632,6.946243
5949.418,7.063546
5955.203,7.207315
5960.989,7.389431
5966.774,7.617712
5972.56,7.843426
5978.345,8.065194
5984.131,8.261831
5989.916,8.443807
5995.702,8.616016
6001.487,8.775952
6007.272,8.935777
6013.058,9.088288
6018.844,9.240929
6024.629,9.397552
6030.415,9.529157
6036.2,9.651852
6041.985,9.752068
6047.771,9.851321
6053.557,9.944222
6059.342,10.02517
6065.128,10.08712
6070.913,10.16115
6076.698,10.2132
6082.484,10.27924
6088.27,10.32438
6094.055,10.34113
6099.841,10.2861
6105.626,10.21515
6111.412,10.24125
6117.197,10.344
6122.982,10.44119
6128.768,10.51996
6134.554,10.58295
6140.339,10.65479
6146.125,10.70942
6151.91,10.75326
6157.695,10.79598
6163.481,10.85081
6169.267,10.8965
6175.052,10.94265
6180.837,10.97961
6186.623,11.00532
6192.408,11.01973
6198.194,11.05646
6203.979,11.07264
6209.765,11.10116
6215.551,11.12641
6221.336,11.14611
6227.121,11.17057
6232.907,11.19099
6238.692,11.20295
6244.478,11.20958
6250.264,11.2107
6256.049,11.21316
6261.834,11.21847
6267.62,11.23002
6273.405,11.23907
6279.191,11.24513
6284.977,11.2459
6290.762,11.25551
6296.547,11.25506
6302.333,11.26822
6308.118,11.27531
6313.904,11.27293
6319.689,11.25539
6325.475,11.23977
6331.26,11.21509
6337.046,11.17888
6342.831,11.14988
6348.617,11.10991
6354.402,11.06491
6360.188,11.02983
6365.974,10.96677
6371.759,10.87979
6377.544,10.8137
6383.33,10.78921
6389.115,10.76626
6394.901,10.74496
6400.687,10.68799
6406.472,10.59903
6412.257,10.49655
6418.043,10.41653
6423.828,10.38548
6429.614,10.35345
6435.399,10.31153
6441.185,10.22101
6446.97,10.1059
6452.756,9.987926
6458.541,9.842657
6464.327,9.632756
6470.112,9.310041
6475.897,8.922242
6481.684,8.673571
6487.469,8.70868
6493.254,8.867994
6499.04,9.028726
6504.825,9.176654
6510.61,9.292668
6516.396,9.372309
6522.182,9.443947
6527.967,9.50797
6533.753,9.558847
6539.538,9.602439
6545.324,9.646442
6551.109,9.688444
6556.895,9.719818
6562.68,9.752471
6568.466,9.808077
6574.251,9.86127
6580.037,9.898006
6585.822,9.915659
6591.607,9.930682
6597.393,9.935646
6603.179,9.936222
6608.964,9.935497
6614.75,9.935513
6620.535,9.931352
6626.32,9.913603
6632.106,9.898498
6637.892,9.879582
6643.677,9.853024
6649.463,9.822847
6655.248,9.78547
6661.034,9.746485
6666.819,9.700768
6672.604,9.671808
6678.39,9.629799
6684.176,9.584417
6689.961,9.531993
6695.747,9.473404
6701.532,9.408529
6707.317,9.336302
6713.103,9.259842
6718.889,9.189965
6724.674,9.129427
6730.459,9.072371
6736.245,9.014044
6742.03,8.954167
6747.816,8.890939
6753.602,8.838778
6759.387,8.776494
6765.173,8.725364
6770.958,8.648465
6776.743,8.559302
6782.529,8.445212
6788.314,8.324443
6794.1,8.197547
6799.886,8.067216
6805.671,7.936008
6811.457,7.828893
6817.242,7.709865
6823.027,7.579205
6828.813,7.438535
6834.599,7.316668
6840.384,7.255415
6846.169,7.214691
6851.955,7.169055
6857.74,7.113581
6863.526,7.064089
6869.312,7.00561
6875.097,6.960342
6880.882,6.887852
6886.668,6.800056
6892.453,6.722572
6898.239,6.655727
6904.024,6.613102
6909.81,6.574985
6915.596,6.52635
6921.381,6.448973
6927.166,6.359156
6932.952,6.25907
6938.737,6.134992
6944.523,6.019134
6950.309,5.948144
6956.094,5.93501
6961.879,5.952894
6967.665,5.966322
6973.45,5.988362
6979.236,5.983984
6985.021,5.967415
6990.807,5.932971
6996.592,5.888584
7002.378,5.839555
7008.163,5.781171
7013.949,5.722425
7019.734,5.675483
7025.52,5.66538
7031.305,5.698306
7037.091,5.722945
7042.876,5.739004
7048.662,5.675869
7054.447,5.547906
7060.232,5.401875
7066.019,5.412251
7071.804,5.596604
7077.589,5.819208
7083.375,5.995792
7089.16,6.074765
7094.946,6.136365
7100.731,6.1944
7106.517,6.317859
7112.302,6.428525
7118.088,6.562864
7123.873,6.641433
7129.659,6.667848
7135.444,6.620666
7141.229,6.519431
7147.015,6.39077
7152.801,6.179085
7158.586,5.826369
7164.372,5.328311
7170.157,4.987428
7175.942,5.01719
7181.729,5.357001
7187.514,5.711143
7193.299,6.05348
7199.085,6.365086
7204.87,6.674756
7210.655,6.91897
7216.441,7.136707
7222.227,7.377186
7228.012,7.666689
7233.798,7.964925
7239.583,8.212163
7245.369,8.447364
7251.154,8.717143
7256.939,8.943665
7262.725,9.20153
7268.511,9.435868
7274.296,9.677407
7280.082,9.902431
7285.867,10.13191
7291.652,10.34472
7297.438,10.56611
7303.224,10.76624
7309.009,11.01359
7314.794,11.20499
7320.58,11.39801
7326.365,11.59414
7332.151,11.70454
7337.937,11.85012
7343.722,11.95461
7349.508,12.02281
7355.293,12.11537
7361.079,12.168
7366.864,12.24647
7372.649,12.28345
7378.435,12.34645
7384.221,12.3929
7390.006,12.43261
7395.792,12.4588
7401.577,12.48686
7407.362,12.51565
7413.148,12.54805
7418.934,12.56422
7424.719,12.59182
7430.504,12.60106
7436.29,12.62213
7442.075,12.63317
7447.861,12.66128
7453.646,12.67461
7459.432,12.69316
7465.218,12.70125
7471.003,12.70693
7476.788,12.71043
7482.574,12.72556
7488.359,12.71113
7494.145,12.70191
7499.931,12.68382
7505.716,12.68717
7511.501,12.67655
7517.287,12.67222
7523.072,12.67004
7528.858,12.64854
7534.644,12.64217
7540.429,12.61522
7546.214,12.59535
7552.0,12.58216
7557.785,12.55854
7563.571,12.54774
7569.356,12.51991
7575.142,12.50133
7580.927,12.47628
7586.713,12.46038
7592.498,12.43523
7598.284,12.40063
7604.069,12.37528
7609.854,12.35205
7615.641,12.30857
7621.426,12.27497
7627.211,12.22044
7632.997,12.18574
7638.782,12.13318
7644.568,12.09493
7650.354,12.07286
7656.139,12.02687
7661.924,12.00149
7667.71,11.96604
7673.495,11.93612
7679.281,11.91838
7685.066,11.89863
7690.852,11.88269
7696.637,11.86362
7702.423,11.84246
7708.208,11.81024
7713.994,11.79546
7719.779,11.77
7725.564,11.74535
7731.35,11.71556
7737.136,11.70203
7742.921,11.68958
7748.707,11.66649
7754.492,11.63192
7760.277,11.59394
7766.063,11.56745
7771.849,11.53306
7777.634,11.51091
7783.42,11.50885
7789.205,11.48857
7794.991,11.48695
7800.776,11.46077
7806.562,11.42302
7812.347,11.39255
7818.133,11.37662
7823.918,11.33914
7829.704,11.30822
7835.489,11.27459
7841.274,11.2379
7847.06,11.19474
7852.846,11.16109
7858.631,11.1115
7864.417,11.05687
7870.202,11.01184
7875.987,10.95139
7881.773,10.89746
7887.559,10.8415
7893.344,10.77722
7899.13,10.73902
7904.915,10.65193
7910.7,10.59714
7916.486,10.53333
7922.271,10.46599
7928.057,10.38368
7933.843,10.31616
7939.628,10.24263
7945.414,10.15605
7951.199,10.08062
7956.984,9.986136
7962.77,9.894501
7968.556,9.815153
7974.341,9.721179
7980.126,9.613676
7985.912,9.528325
7991.697,9.422249
7997.483,9.329978
8003.269,9.223002
8009.054,9.120874
8014.839,9.018105
8020.625,8.888829
8026.41,8.780539
8032.196,8.647566
8037.981,8.52673
8043.767,8.410839
8049.553,8.270502
8055.338,8.142827
8061.124,8.011362
8066.909,7.874342
8072.694,7.731045
8078.48,7.599172
8084.266,7.465742
8090.051,7.315427
8095.836,7.192632
8101.622,7.044143
8107.407,6.892483
8113.192,6.749692
8118.979,6.598313
8124.764,6.443869
8130.55,6.286217
8136.335,6.140442
8142.12,5.981233
8147.906,5.823816
8153.691,5.677967
8159.477,5.548782
8165.263,5.393242
8171.048,5.250382
8176.833,5.111651
8182.619,4.995983
8188.404,4.89185
8194.189,4.797917
8199.976,4.737734
8205.761,4.66451
8211.546,4.619196
8217.332,4.60431
8223.117,4.600619
8228.902,4.602311
8234.688,4.61732
8240.474,4.631614
8246.259,4.63897
8252.045,4.660124
8257.83,4.694448
8263.616,4.734937
8269.401,4.782022
8275.187,4.846251
8280.973,4.916736
8286.758,5.002223
8292.543,5.106825
8298.329,5.206243
8304.114,5.298735
8309.899,5.403743
8315.686,5.516889
8321.471,5.603396
8327.256,5.715892
8333.042,5.826724
8338.827,5.942606
8344.612,6.067699
8350.398,6.21987
8356.184,6.378616
8361.969,6.540255
8367.755,6.695418
8373.54,6.837885
8379.325,6.980503
8385.111,7.112077
8390.896,7.210635
8396.683,7.295671
8402.468,7.311786
8408.253,7.314817
8414.039,7.274674
8419.824,7.243671
8425.609,7.229731
8431.396,7.282259
8437.181,7.386607
8442.966,7.541423
8448.752,7.725615
8454.537,7.900835
8460.322,8.065413
8466.108,8.167694
8471.894,8.28892
8477.679,8.441068
8483.465,8.605001
8489.25,8.775379
8495.035,8.91159
8500.821,8.993952
8506.606,9.05195
8512.392,9.071553
8518.178,9.112197
8523.963,9.190797
8529.748,9.243966
8535.534,9.236919
8541.319,9.179722
8547.105,9.066483
8552.891,8.866955
8558.676,8.643704
8564.462,8.488502
8570.247,8.594275
8576.032,8.823199
8581.818,9.069331
8587.604,9.339886
8593.389,9.657894
8599.175,9.977259
8604.96,10.28596
8610.745,10.57339
8616.531,10.83539
8622.316,11.08467
8628.102,11.28238
8633.888,11.48086
8639.673,11.64897
8645.458,11.81419
8651.244,11.95073
8657.029,12.07117
8662.814,12.19559
8668.601,12.29952
8674.386,12.41176
8680.172,12.52645
8685.957,12.61311
8691.742,12.7311
8697.528,12.87006
8703.313,12.96459
8709.099,13.08893
8714.885,13.22396
8720.67,13.32231
8726.455,13.45714
8732.241,13.58569
8738.026,13.69922
8743.812,13.82362
8749.598,13.92636
8755.383,14.02847
8761.168,14.13322
8766.954,14.20771
8772.739,14.29159
8778.524,14.35412
8784.311,14.42528
8790.096,14.48173
8795.881,14.51564
8801.667,14.55748
8807.452,14.61176
8813.237,14.64704
8819.023,14.65258
8824.809,14.68221
8830.595,14.70144
8836.38,14.71872
8842.165,14.73805
8847.951,14.76637
8853.736,14.76956
8859.521,14.77901
8865.308,14.79925
8871.093,14.79964
8876.878,14.8002
8882.664,14.7975
8888.449,14.79562
8894.234,14.79665
8900.021,14.80744
8905.806,14.78581
8911.591,14.77294
8917.377,14.76822
8923.162,14.73942
8928.947,14.75415
8934.733,14.72659
8940.519,14.73251
8946.304,14.73367
8952.09,14.74657
8957.875,14.72561
8963.661,14.72102
8969.446,14.74158
8975.231,14.7372
8981.018,14.74973
8986.803,14.76253
8992.588,14.77333
8998.374,14.77681
9004.159,14.78708
9009.944,14.81478
9015.73,14.82472
9021.516,14.83871
9027.301,14.8443
9033.087,14.86684
9038.872,14.84714
9044.657,14.87828
9050.443,14.87886
9056.229,14.90257
9062.014,14.92233
9067.8,14.91008
9073.585,14.90958
9079.37,14.92364
9085.156,14.94276
9090.941,14.93245
9096.727,14.93638
9102.513,14.95204
9108.298,14.93623
9114.084,14.93246
9119.869,14.93068
9125.654,14.92995
9131.44,14.92682
9137.226,14.9164
9143.011,14.92043
9148.797,14.88014
9154.582,14.89623
9160.367,14.89393
9166.153,14.87196
9171.938,14.8494
9177.724,14.85149
9183.51,14.83442
9189.295,14.81214
9195.08,14.80118
9200.866,14.79767
9206.651,14.77561
9212.437,14.78177
9218.223,14.75926
9224.008,14.74487
9229.793,14.74894
9235.579,14.73741
9241.364,14.7359
9247.15,14.74014
9252.936,14.71311
9258.721,14.6886
9264.507,14.68615
9270.292,14.67933
9276.077,14.65871
9281.863,14.66169
9287.648,14.6335
9293.434,14.64483
9299.22,14.63645
9305.005,14.633
9310.79,14.65181
9316.576,14.64945
9322.361,14.65545
9328.146,14.65446
9333.933,14.65648
9339.718,14.66159
9345.503,14.65502
9351.289,14.6368
9357.074,14.61412
9362.859,14.59649
9368.646,14.57519
9374.431,14.55342
9380.217,14.5368
9386.002,14.53525
9391.787,14.48464
9397.573,14.48337
9403.358,14.45664
9409.144,14.42741
9414.93,14.4306
9420.715,14.35978
9426.5,14.35844
9432.286,14.31404
9438.071,14.30747
9443.856,14.26652
9449.643,14.21554
9455.428,14.20135
9461.213,14.16302
9466.999,14.13203
9472.784,14.10692
9478.569,14.07826
9484.355,14.08882
9490.141,14.05882
9495.926,14.02731
9501.712,14.03168
9507.497,14.00719
9513.282,13.97378
9519.068,13.97227
9524.854,13.95275
9530.64,13.94252
9536.425,13.90021
9542.21,13.876
9547.996,13.85168
9553.781,13.83084
9559.566,13.81702
9565.353,13.80089
9571.138,13.75001
9576.923,13.74603
9582.709,13.72039
9588.494,13.69901
9594.279,13.69256
9600.065,13.69862
9605.851,13.69943
9611.636,13.73341
9617.422,13.77843
9623.207,13.82014
9628.992,13.82802
9634.778,13.87461
9640.563,13.91051
9646.349,13.97215
9652.135,13.9966
9657.92,14.07128
9663.706,14.10488
9669.491,14.1619
9675.276,14.20673
9681.063,14.22385
9686.848,14.29562
9692.633,14.30178
9698.419,14.35717
9704.204,14.40207
9709.989,14.43865
9715.775,14.51937
9721.561,14.56311
9727.346,14.59155
9733.132,14.64214
9738.917,14.6801
9744.702,14.74475
9750.488,14.76529
9756.273,14.80958
9762.059,14.81492
9767.845,14.81903
9773.63,14.81711
9779.415,14.85155
9785.201,14.83604
9790.986,14.86144
9796.771,14.85912
9802.558,14.85007
9808.343,14.83549
9814.129,14.84288
9819.914,14.81517
9825.699,14.82985
9831.485,14.8615
9837.271,14.89452
9843.056,14.90064
9848.842,14.96519
9854.627,14.99307
9860.412,15.04565
9866.198,15.1127
9871.983,15.1365
9877.769,15.21383
9883.555,15.26463
9889.34,15.32491
9895.125,15.34634
9900.911,15.37874
9906.696,15.42814
9912.481,15.42815
9918.268,15.49161
9924.053,15.49403
9929.838,15.51971
9935.624,15.56523
9941.409,15.61569
9947.195,15.63292
9952.98,15.65441
9958.766,15.71441
9964.552,15.7303
9970.337,15.77285
9976.122,15.76289
9981.908,15.8222
9987.693,15.83585
9993.479,15.84477
9999.265,15.84511
10005.05,15.87685
10010.83,15.89138
10016.62,15.91216
10022.41,15.90906
10028.19,15.97416
10033.98,15.98344
10039.76,16.00431
10045.55,16.0201
10051.33,16.03258
10057.12,16.05405
10062.9,16.07954
10068.69,16.06519
10074.48,16.1134
10080.26,16.11224
10086.05,16.154
10091.83,16.11995
10097.62,16.13444
10103.4,16.16005
10109.19,16.14358
10114.97,16.14244
10120.76,16.14924
10126.54,16.18775
10132.33,16.16274
10138.12,16.18086
10143.9,16.20028
10149.69,16.19058
10155.47,16.21976
10161.26,16.2014
10167.04,16.21444
10172.83,16.23477
10178.61,16.18112
10184.4,16.20062
10190.19,16.21763
10195.97,16.23853
10201.76,16.21672
10207.54,16.22952
10213.33,16.1939
10219.11,16.24726
10224.9,16.20873
10230.68,16.21797
10236.47,16.23203
10242.25,16.19823
10248.04,16.16945
10253.83,16.20557
10259.61,16.16991
10265.4,16.18294
10271.18,16.17422
10276.97,16.20208
10282.75,16.15005
10288.54,16.17268
10294.32,16.12661
10300.11,16.16058
10305.9,16.13099
10311.68,16.14828
10317.47,16.11661
10323.25,16.16061
10329.04,16.14462
10334.82,16.13351
10340.61,16.11605
10346.39,16.11163
10352.18,16.10799
10357.96,16.13609
10363.75,16.12842
10369.54,16.0915
10375.32,16.05006
10381.11,16.09881
10386.89,16.07334
10392.68,16.03415
10398.46,16.02003
10404.25,16.05924
10410.03,16.00142
10415.82,16.01813
10421.61,16.02839
10427.39,15.97958
10433.18,15.95848
10438.96,15.90974
10444.75,16.00325
10450.53,15.89477
10456.32,15.91308
10462.1,15.87304
10467.89,15.81045
10473.67,15.8526
10479.46,15.77766
10485.25,15.77556
10491.03,15.76493
10496.82,15.67053
10502.6,15.6367
10508.39,15.58652
10514.17,15.54381
10519.96,15.48951
10525.74,15.44113
10531.53,15.39066
10537.32,15.35896
10543.1,15.31803
10548.89,15.18681
10554.67,15.13666
10560.46,15.04422
10566.24,14.9522
10572.03,14.89227
10577.81,14.77451
10583.6,14.68632
10589.38,14.58359
10595.17,14.4925
10600.96,14.37473
10606.74,14.25392
10612.53,14.09467
10618.31,13.99574
10624.1,13.85884
10629.88,13.71887
10635.67,13.6059
10641.45,13.41866
10647.24,13.29292
10653.03,13.18094
10658.81,12.98753
10664.6,12.86765
10670.38,12.75544
10676.17,12.58328
10681.95,12.57498
10687.74,12.42389
10693.52,12.34832
10699.31,12.24971
10705.09,12.19956
10710.88,12.20741
10716.67,12.13502
10722.45,12.1267
10728.24,12.1263
10734.02,12.15324
10739.81,12.1931
10745.59,12.19575
10751.38,12.24019
10757.16,12.32774
10762.95,12.39294
10768.74,12.46045
10774.52,12.50368
10780.31,12.62843
10786.09,12.72227
10791.88,12.76577
10797.66,12.88131
10803.45,13.0083
10809.23,13.1202
10815.02,13.23255
10820.8,13.31727
10826.59,13.38715
10832.38,13.57142
10838.16,13.69993
10843.95,13.76884
10849.73,13.87209
10855.52,13.9412
10861.3,14.13274
10867.09,14.214
10872.87,14.2964
10878.66,14.40072
10884.45,14.49203
10890.23,14.57718
10896.02,14.66496
10901.8,14.77854
10907.59,14.81996
10913.37,14.98579
10919.16,15.02641
10924.94,15.1187
10930.73,15.2205
10936.51,15.2802
10942.3,15.3407
10948.09,15.37082
10953.87,15.49494
10959.66,15.64266
10965.44,15.72372
10971.23,15.79486
10977.01,15.77394
10982.8,15.84624
10988.58,15.8607
10994.37,15.92961
11000.16,15.95544
11005.94,16.06376
11011.73,16.11612
11017.51,16.15261
11023.3,16.18583
11029.08,16.18261
11034.87,16.19654
11040.65,16.30182
11046.44,16.28695
11052.22,16.29485
11058.01,16.31315
11063.79,16.40499
11069.58,16.40345
11075.37,16.39294
11081.15,16.3978
11086.94,16.36607
11092.72,16.41218
11098.51,16.42954
11104.29,16.51668
11110.08,16.3787
11115.87,16.46552
11121.65,16.43579
11127.44,16.51225
11133.22,16.48644
11139.01,16.45321
11144.79,16.54864
11150.58,16.56856
11156.36,16.63891
11162.15,16.70516
11167.93,16.58666
11173.72,16.67781
11179.5,16.71843
11185.29,16.71046
11191.08,16.72345
11196.86,16.7978
11202.65,16.75573
11208.43,16.90059
11214.22,16.89435
11220.0,16.94436
11225.79,17.00404
11231.58,16.97056
11237.36,16.99745
11243.15,16.96867
11248.93,17.08758
11254.72,17.14068
11260.5,17.13502
11266.29,17.18174
11272.07,17.17897
11277.86,17.21024
11283.64,17.24648
11289.43,17.23778
11295.21,17.16416
11301.0,17.26492
11306.79,17.25656
11312.57,17.27013
11318.36,17.20745
11324.14,17.26988
11329.93,17.31836
11335.71,17.4337
11341.5,17.33968
11347.28,17.42986
11353.07,17.48594
11358.86,17.41845
11364.64,17.30808
11370.43,17.35414
11376.21,17.43199
11382.0,17.4062
11387.78,17.48273
11393.57,17.52833
11399.35,17.4981
11405.14,17.45887
11410.92,17.4388
11416.71,17.51879
11422.5,17.46047
11428.28,17.50181
11434.07,17.54398
11439.85,17.56633
11445.64,17.42447
11451.42,17.62865
11457.21,17.67753
11462.99,17.6229
11468.78,17.62483
11474.57,17.59037
11480.35,17.72022
11486.14,17.54809
11491.92,17.68718
11497.71,17.64651
11503.49,17.72336
11509.28,17.62589
11515.06,17.79918
11520.85,17.69168
11526.63,17.74276
11532.42,17.77394
11538.21,17.71523
11543.99,17.72046
11549.78,17.79438
11555.56,17.66709
11561.35,17.86494
11567.13,17.78143
11572.92,17.70674
11578.7,17.88213
11584.49,17.83728
11590.28,17.89202
11596.06,17.87913
11601.85,17.89337
11607.63,17.73938
11613.42,17.75366
11619.2,17.8601
11624.99,17.96205
11630.77,17.83434
11636.56,17.90412
11642.34,17.95059
11648.13,17.84606
11653.92,17.93564
11659.7,17.98385
11665.49,17.89814
11671.27,17.94574
11677.06,17.92244
11682.84,17.83583
11688.63,17.90786
11694.41,17.98357
11700.2,17.78162
11705.99,17.95299
11711.77,17.89571
11717.56,17.94618
11723.34,17.85007
11729.13,17.82822
11734.91,17.92212
11740.7,17.89555
11746.48,17.98976
11752.27,17.97128
11758.05,17.92696
11763.84,18.11586
11769.63,17.95838
11775.41,18.03379
11781.2,17.88377
11786.98,17.88575
11792.77,17.91143
11798.55,17.91521
11804.34,17.87067
11810.12,18.00937
11815.91,17.86178
11821.7,17.85537
11827.48,17.90946
11833.27,18.10921
11839.05,18.04722
11844.84,18.04139
11850.62,17.87546
11856.41,18.07021
11862.19,17.98712
11867.98,18.1878
11873.76,18.08352
11879.55,18.0935
11885.34,17.99786
11891.12,18.0424
11896.91,18.1671
11902.69,18.0694
11908.48,18.22371
11914.26,18.04951
11920.05,18.22271
11925.83,18.20334
11931.62,18.07579
11937.41,18.11586
11943.19,18.29948
11948.98,18.35406
11954.76,18.333
11960.55,18.37237
11966.33,18.27358
11972.12,18.10211
11977.9,18.2099
11983.69,18.19742
11989.47,18.29858
11995.26,18.27878
11999.12,18.39866