File: Data/NIR/S0040HDPE_3.csv
Wavenumber,Intensity
3999.706,4.367303
4005.491,4.37076
4011.277,4.367474
4017.062,4.352896
4022.848,4.347675
4028.633,4.357725
4034.419,4.366281
4040.204,4.36519
4045.99,4.36866
4051.775,4.371479
4057.561,4.372774
4063.346,4.375695
4069.132,4.3778
4074.917,4.381954
4080.703,4.381924
4086.488,4.383771
4092.274,4.382603
4098.059,4.38515
4103.845,4.388175
4109.63,4.388755
4115.416,4.38938
4121.201,4.393168
4126.987,4.394152
4132.772,4.398341
4138.558,4.401433
4144.343,4.398036
4150.129,4.399001
4155.914,4.408478
4161.7,4.413828
4167.485,4.416462
4173.271,4.419821
4179.056,4.425609
4184.842,4.434486
4190.627,4.439779
4196.413,4.449707
4202.198,4.463184
4207.983,4.4764
4213.769,4.484499
4219.555,4.492072
4225.34,4.500523
4231.125,4.511384
4236.911,4.516851
4242.697,4.514946
4248.482,4.512033
4254.268,4.512443
4260.053,4.521659
4265.838,4.540203
4271.624,4.547767
4277.41,4.551662
4283.195,4.556437
4288.98,4.565046
4294.766,4.570289
4300.552,4.570875
4306.337,4.561684
4312.123,4.550225
4317.908,4.541265
4323.693,4.53361
4329.479,4.540524
4335.265,4.54477
4341.05,4.546096
4346.835,4.554116
4352.621,4.559441
4358.407,4.5743
4364.192,4.587695
4369.978,4.596858
4375.763,4.613722
4381.548,4.641573
4387.334,4.672395
4393.12,4.720216
4398.905,4.782965
4404.69,4.856052
4410.476,4.939027
4416.262,5.017557
4422.047,5.078664
4427.833,5.131477
4433.618,5.174452
4439.403,5.218239
4445.189,5.27115
4450.975,5.343479
4456.76,5.410434
4462.545,5.471101
4468.331,5.516359
4474.116,5.548415
4479.902,5.602103
4485.688,5.668571
4491.473,5.733507
4497.258,5.798535
4503.044,5.856601
4508.83,5.916024
4514.615,5.981919
4520.4,6.035767
4526.186,6.098392
4531.971,6.150648
4537.757,6.214366
4543.542,6.278904
4549.328,6.344049
4555.113,6.406938
4560.899,6.479978
4566.685,6.54665
4572.47,6.597434
4578.255,6.641534
4584.041,6.680273
4589.826,6.707572
4595.612,6.727515
4601.397,6.742848
4607.183,6.768175
4612.968,6.79342
4618.754,6.817488
4624.539,6.849631
4630.325,6.872544
4636.11,6.88252
4641.896,6.889884
4647.681,6.891213
4653.467,6.873719
4659.252,6.827484
4665.038,6.759992
4670.823,6.76811
4676.609,6.85322
4682.394,6.930501
4688.18,6.966575
4693.965,6.978846
4699.751,6.985568
4705.536,6.975644
4711.322,6.948793
4717.107,6.911616
4722.893,6.893778
4728.678,6.874298
4734.464,6.871728
4740.249,6.872206
4746.035,6.858154
4751.82,6.846212
4757.605,6.821001
4763.391,6.78908
4769.177,6.745286
4774.962,6.68942
4780.748,6.661453
4786.533,6.652869
4792.319,6.636061
4798.104,6.624832
4803.89,6.60005
4809.675,6.565966
4815.46,6.518238
4821.246,6.477908
4827.032,6.452754
4832.817,6.420349
4838.603,6.388834
4844.388,6.339062
4850.174,6.287976
4855.959,6.24552
4861.745,6.205502
4867.53,6.184628
4873.315,6.190685
4879.101,6.205398
4884.887,6.228228
4890.672,6.254097
4896.458,6.271166
4902.243,6.287428
4908.028,6.296501
4913.814,6.30455
4919.6,6.301578
4925.385,6.302151
4931.17,6.299574
4936.956,6.302502
4942.742,6.28729
4948.527,6.249218
4954.313,6.169986
4960.098,6.063156
4965.883,6.04757
4971.669,6.092786
4977.455,6.118105
4983.24,6.153886
4989.025,6.197259
4994.811,6.248298
5000.597,6.314193
5006.382,6.35999
5012.167,6.376938
5017.953,6.374922
5023.738,6.395098
5029.524,6.420249
5035.31,6.430767
5041.095,6.434671
5046.88,6.439709
5052.666,6.424978
5058.451,6.393765
5064.237,6.378236
5070.022,6.384472
5075.808,6.385335
5081.593,6.377241
5087.379,6.369461
5093.165,6.35617
5098.95,6.348846
5104.735,6.3614
5110.521,6.376131
5116.307,6.393751
5122.092,6.40341
5127.877,6.421756
5133.663,6.435839
5139.448,6.425247
5145.234,6.405741
5151.02,6.383057
5156.805,6.367492
5162.59,6.365376
5168.376,6.372187
5174.161,6.368817
5179.947,6.363132
5185.732,6.36804
5191.518,6.359054
5197.303,6.392643
5203.089,6.384556
5208.874,6.403393
5214.66,6.372539
5220.445,6.387786
5226.231,6.422064
5232.016,6.416883
5237.802,6.414682
5243.587,6.46204
5249.373,6.464376
5255.158,6.477936
5260.944,6.481454
5266.729,6.476441
5272.515,6.443939
5278.3,6.452591
5284.086,6.476221
5289.871,6.485769
5295.657,6.439641
5301.442,6.416655
5307.228,6.417714
5313.013,6.414496
5318.799,6.491892
5324.584,6.537791
5330.37,6.546304
5336.155,6.549463
5341.94,6.491771
5347.726,6.427907
5353.512,6.393395
5359.297,6.292607
5365.083,6.260261
5370.868,6.203602
5376.654,6.216693
5382.439,6.177368
5388.225,6.158066
5394.01,6.156222
5399.796,6.073349
5405.581,6.032295
5411.367,6.005945
5417.152,5.879603
5422.938,5.846952
5428.723,5.869019
5434.509,5.846164
5440.294,5.844265
5446.08,5.82867
5451.865,5.786122
5457.65,5.779841
5463.436,5.776205
5469.222,5.75838
5475.007,5.752952
5480.792,5.676729
5486.578,5.650487
5492.363,5.657065
5498.149,5.644001
5503.935,5.662798
5509.72,5.680202
5515.505,5.700188
5521.291,5.704075
5527.077,5.698567
5532.862,5.694505
5538.647,5.685192
5544.433,5.67197
5550.219,5.663985
5556.004,5.660325
5561.79,5.689846
5567.575,5.724483
5573.36,5.779865
5579.146,5.847582
5584.932,5.894942
5590.717,5.903738
5596.502,5.889038
5602.288,5.854307
5608.073,5.799714
5613.859,5.745222
5619.645,5.691852
5625.43,5.640303
5631.215,5.599725
5637.001,5.542462
5642.786,5.466214
5648.572,5.326933
5654.357,5.123437
5660.143,4.972188
5665.929,4.956639
5671.714,5.043846
5677.5,5.164997
5683.285,5.262096
5689.07,5.330644
5694.856,5.411449
5700.642,5.516929
5706.427,5.616678
5712.212,5.669879
5717.998,5.653445
5723.783,5.519004
5729.569,5.286329
5735.354,5.236099
5741.14,5.196497
5746.925,5.100266
5752.711,4.998026
5758.496,4.908233
5764.282,4.834609
5770.067,4.786829
5775.853,4.770739
5781.638,4.78938
5787.424,4.826839
5793.209,4.871931
5798.995,4.909971
5804.78,4.965436
5810.566,5.021597
5816.352,5.082311
5822.137,5.147417
5827.922,5.230425
5833.708,5.325785
5839.493,5.432789
5845.279,5.568466
5851.064,5.763411
5856.85,6.018755
5862.635,6.344688
5868.421,6.682776
5874.206,7.013446
5879.992,7.292623
5885.777,7.527453
5891.563,7.718694
5897.348,7.885764
5903.134,8.035693
5908.919,8.187485
5914.705,8.318897
5920.49,8.44467
5926.276,8.565857
5932.061,8.693633
5937.847,8.811005
5943.632,8.92713
5949.418,9.037994
5955.203,9.176114
5960.989,9.348205
5966.774,9.557117
5972.56,9.763937
5978.345,9.963524
5984.131,10.13857
5989.916,10.30593
5995.702,10.45944
6001.487,10.60069
6007.272,10.73591
6013.058,10.87013
6018.844,11.00598
6024.629,11.14747
6030.415,11.26497
6036.2,11.37128
6041.985,11.45917
6047.771,11.54657
6053.557,11.6302
6059.342,11.70376
6065.128,11.75735
6070.913,11.81725
6076.698,11.87257
6082.484,11.92938
6088.27,11.96948
6094.055,11.97492
6099.841,11.89099
6105.626,11.79781
6111.412,11.82842
6117.197,11.94302
6122.982,12.04023
6128.768,12.13403
6134.554,12.20844
6140.339,12.28169
6146.125,12.34525
6151.91,12.38851
6157.695,12.43801
6163.481,12.48119
6169.267,12.53519
6175.052,12.58007
6180.837,12.60793
6186.623,12.6359
6192.408,12.66052
6198.194,12.6839
6203.979,12.70957
6209.765,12.72738
6215.551,12.76109
6221.336,12.78086
6227.121,12.80165
6232.907,12.82926
6238.692,12.83938
6244.478,12.8506
6250.264,12.85591
6256.049,12.85954
6261.834,12.86773
6267.62,12.88204
6273.405,12.88872
6279.191,12.90116
6284.977,12.90728
6290.762,12.91288
6296.547,12.91435
6302.333,12.93086
6308.118,12.93646
6313.904,12.94043
6319.689,12.93466
6325.475,12.92522
6331.26,12.90456
6337.046,12.88077
6342.831,12.85865
6348.617,12.82938
6354.402,12.79862
6360.188,12.77199
6365.974,12.72052
6371.759,12.65045
6377.544,12.59992
6383.33,12.5766
6389.115,12.56327
6394.901,12.54336
6400.687,12.50097
6406.472,12.43014
6412.257,12.34507
6418.043,12.2824
6423.828,12.25659
6429.614,12.23054
6435.399,12.20121
6441.185,12.12997
6446.97,12.029
6452.756,11.92732
6458.541,11.80521
6464.327,11.62173
6470.112,11.34559
6475.897,11.00042
6481.684,10.77994
6487.469,10.80773
6493.254,10.95131
6499.04,11.10155
6504.825,11.22422
6510.61,11.33286
6516.396,11.40874
6522.182,11.47103
6527.967,11.53126
6533.753,11.57804
6539.538,11.62254
6545.324,11.66101
6551.109,11.69882
6556.895,11.72764
6562.68,11.76334
6568.466,11.81393
6574.251,11.86589
6580.037,11.90687
6585.822,11.92463
6591.607,11.9371
6597.393,11.94662
6603.179,11.94977
6608.964,11.95432
6614.75,11.95863
6620.535,11.95521
6626.32,11.94006
6632.106,11.92764
6637.892,11.91903
6643.677,11.89528
6649.463,11.8805
6655.248,11.84223
6661.034,11.81822
6666.819,11.77597
6672.604,11.75827
6678.39,11.71673
6684.176,11.67947
6689.961,11.63493
6695.747,11.58597
6701.532,11.53268
6707.317,11.47325
6713.103,11.41519
6718.889,11.34373
6724.674,11.28648
6730.459,11.23688
6736.245,11.19266
6742.03,11.13948
6747.816,11.08798
6753.602,11.03984
6759.387,10.98784
6765.173,10.9415
6770.958,10.86934
6776.743,10.79196
6782.529,10.68757
6788.314,10.58665
6794.1,10.46882
6799.886,10.34768
6805.671,10.22361
6811.457,10.12534
6817.242,10.01479
6823.027,9.886679
6828.813,9.758746
6834.599,9.644588
6840.384,9.580821
6846.169,9.536553
6851.955,9.495407
6857.74,9.441159
6863.526,9.398582
6869.312,9.342237
6875.097,9.285805
6880.882,9.222577
6886.668,9.136356
6892.453,9.061867
6898.239,8.989302
6904.024,8.941813
6909.81,8.904478
6915.596,8.855341
6921.381,8.776038
6927.166,8.694416
6932.952,8.581201
6938.737,8.454631
6944.523,8.335435
6950.309,8.260995
6956.094,8.246643
6961.879,8.264971
6967.665,8.27524
6973.45,8.292619
6979.236,8.289145
6985.021,8.272524
6990.807,8.240373
6996.592,8.194084
7002.378,8.140171
7008.163,8.071403
7013.949,8.012363
7019.734,7.963546
7025.52,7.95011
7031.305,7.986514
7037.091,8.016181
7042.876,8.031936
7048.662,7.967384
7054.447,7.81832
7060.232,7.657244
7066.019,7.659998
7071.804,7.870252
7077.589,8.113914
7083.375,8.298736
7089.16,8.392885
7094.946,8.474644
7100.731,8.527322
7106.517,8.675179
7112.302,8.786737
7118.088,8.948923
7123.873,9.01531
7129.659,9.049422
7135.444,9.007886
7141.229,8.918852
7147.015,8.7725
7152.801,8.543174
7158.586,8.173827
7164.372,7.600537
7170.157,7.172577
7175.942,7.191305
7181.729,7.601532
7187.514,7.989125
7193.299,8.384318
7199.085,8.722075
7204.87,9.078029
7210.655,9.321804
7216.441,9.559378
7222.227,9.809734
7228.012,10.10971
7233.798,10.42679
7239.583,10.64978
7245.369,10.89472
7251.154,11.1387
7256.939,11.36662
7262.725,11.6243
7268.511,11.83647
7274.296,12.074
7280.082,12.28232
7285.867,12.50245
7291.652,12.69789
7297.438,12.91252
7303.224,13.09068
7309.009,13.32804
7314.794,13.50541
7320.58,13.67521
7326.365,13.87435
7332.151,13.96916
7337.937,14.11121
7343.722,14.22132
7349.508,14.2787
7355.293,14.3717
7361.079,14.41382
7366.864,14.47313
7372.649,14.50697
7378.435,14.56991
7384.221,14.60963
7390.006,14.64601
7395.792,14.67154
7401.577,14.70271
7407.362,14.72098
7413.148,14.74955
7418.934,14.77504
7424.719,14.79013
7430.504,14.81097
7436.29,14.82125
7442.075,14.83612
7447.861,14.86212
7453.646,14.88451
7459.432,14.90096
7465.218,14.90997
7471.003,14.92891
7476.788,14.93274
7482.574,14.93561
7488.359,14.93001
7494.145,14.92837
7499.931,14.9112
7505.716,14.91471
7511.501,14.90949
7517.287,14.90694
7523.072,14.90467
7528.858,14.89934
7534.644,14.88991
7540.429,14.87392
7546.214,14.86784
7552.0,14.84781
7557.785,14.83419
7563.571,14.8251
7569.356,14.81366
7575.142,14.79552
7580.927,14.77735
7586.713,14.76817
7592.498,14.7468
7598.284,14.71638
7604.069,14.70571
7609.854,14.6788
7615.641,14.64588
7621.426,14.61918
7627.211,14.5755
7632.997,14.54164
7638.782,14.51185
7644.568,14.47731
7650.354,14.45056
7656.139,14.42294
7661.924,14.39058
7667.71,14.36384
7673.495,14.34217
7679.281,14.32438
7685.066,14.31244
7690.852,14.29901
7696.637,14.28705
7702.423,14.26198
7708.208,14.2474
7713.994,14.23214
7719.779,14.21268
7725.564,14.18698
7731.35,14.16928
7737.136,14.15918
7742.921,14.14298
7748.707,14.13441
7754.492,14.10831
7760.277,14.06897
7766.063,14.04071
7771.849,14.0178
7777.634,14.00922
7783.42,14.00086
7789.205,13.99198
7794.991,13.98153
7800.776,13.96195
7806.562,13.93743
7812.347,13.91891
7818.133,13.89625
7823.918,13.8659
7829.704,13.83961
7835.489,13.81737
7841.274,13.78111
7847.06,13.74674
7852.846,13.71309
7858.631,13.66809
7864.417,13.62609
7870.202,13.59186
7875.987,13.5376
7881.773,13.48346
7887.559,13.43796
7893.344,13.38387
7899.13,13.33784
7904.915,13.27675
7910.7,13.22556
7916.486,13.15438
7922.271,13.09863
7928.057,13.03902
7933.843,12.97052
7939.628,12.89216
7945.414,12.823
7951.199,12.75156
7956.984,12.66616
7962.77,12.57361
7968.556,12.49933
7974.341,12.41509
7980.126,12.31743
7985.912,12.23535
7991.697,12.14018
7997.483,12.04726
8003.269,11.93517
8009.054,11.84904
8014.839,11.73714
8020.625,11.61332
8026.41,11.52149
8032.196,11.38302
8037.981,11.2749
8043.767,11.15232
8049.553,11.01437
8055.338,10.87904
8061.124,10.74605
8066.909,10.61251
8072.694,10.47301
8078.48,10.32952
8084.266,10.18477
8090.051,10.02988
8095.836,9.884063
8101.622,9.737463
8107.407,9.57301
8113.192,9.415458
8118.979,9.234144
8124.764,9.075957
8130.55,8.886807
8136.335,8.708623
8142.12,8.524301
8147.906,8.346388
8153.691,8.164752
8159.477,7.994312
8165.263,7.796924
8171.048,7.616864
8176.833,7.424267
8182.619,7.272593
8188.404,7.127459
8194.189,6.992021
8199.976,6.895146
8205.761,6.804744
8211.546,6.741703
8217.332,6.720033
8223.117,6.719728
8228.902,6.727376
8234.688,6.747293
8240.474,6.767027
8246.259,6.781669
8252.045,6.818899
8257.83,6.865147
8263.616,6.92461
8269.401,7.002621
8275.187,7.096159
8280.973,7.200655
8286.758,7.321106
8292.543,7.454998
8298.329,7.598481
8304.114,7.714365
8309.899,7.86611
8315.686,8.000616
8321.471,8.109517
8327.256,8.244274
8333.042,8.381664
8338.827,8.528567
8344.612,8.690119
8350.398,8.860682
8356.184,9.042469
8361.969,9.234828
8367.755,9.411621
8373.54,9.583282
8379.325,9.740091
8385.111,9.895175
8390.896,10.00597
8396.683,10.08861
8402.468,10.11558
8408.253,10.11405
8414.039,10.07254
8419.824,10.04084
8425.609,10.05117
8431.396,10.10739
8437.181,10.22402
8442.966,10.40131
8448.752,10.59144
8454.537,10.77507
8460.322,10.93032
8466.108,11.05568
8471.894,11.17323
8477.679,11.33579
8483.465,11.50379
8489.25,11.67971
8495.035,11.82134
8500.821,11.90736
8506.606,11.97196
8512.392,11.99554
8518.178,12.04625
8523.963,12.11412
8529.748,12.15979
8535.534,12.16763
8541.319,12.12275
8547.105,11.99631
8552.891,11.80179
8558.676,11.59186
8564.462,11.44058
8570.247,11.54022
8576.032,11.76445
8581.818,12.01865
8587.604,12.29162
8593.389,12.60835
8599.175,12.90297
8604.96,13.2052
8610.745,13.49934
8616.531,13.74887
8622.316,13.98192
8628.102,14.18508
8633.888,14.37414
8639.673,14.53988
8645.458,14.71299
8651.244,14.83603
8657.029,14.96327
8662.814,15.09319
8668.601,15.18614
8674.386,15.29457
8680.172,15.40919
8685.957,15.50952
8691.742,15.62528
8697.528,15.73042
8703.313,15.8404
8709.099,15.94985
8714.885,16.06215
8720.67,16.17488
8726.455,16.28974
8732.241,16.4171
8738.026,16.52595
8743.812,16.64328
8749.598,16.7426
8755.383,16.86285
8761.168,16.94097
8766.954,17.01905
8772.739,17.0913
8778.524,17.17052
8784.311,17.22073
8790.096,17.29412
8795.881,17.32056
8801.667,17.37617
8807.452,17.42789
8813.237,17.45904
8819.023,17.47415
8824.809,17.50465
8830.595,17.52593
8836.38,17.53738
8842.165,17.5733
8847.951,17.57722
8853.736,17.59919
8859.521,17.59708
8865.308,17.61997
8871.093,17.62701
8876.878,17.63369
8882.664,17.63425
8888.449,17.64285
8894.234,17.63274
8900.021,17.65172
8905.806,17.63526
8911.591,17.62922
8917.377,17.62789
8923.162,17.62232
8928.947,17.61638
8934.733,17.58535
8940.519,17.58382
8946.304,17.59674
8952.09,17.6176
8957.875,17.60254
8963.661,17.60606
8969.446,17.62288
8975.231,17.6142
8981.018,17.65211
8986.803,17.64361
8992.588,17.67972
8998.374,17.67822
9004.159,17.69935
9009.944,17.71196
9015.73,17.7317
9021.516,17.74154
9027.301,17.76713
9033.087,17.79441
9038.872,17.77258
9044.657,17.79945
9050.443,17.81172
9056.229,17.81424
9062.014,17.83898
9067.8,17.83079
9073.585,17.84206
9079.37,17.85035
9085.156,17.8718
9090.941,17.87853
9096.727,17.8705
9102.513,17.90142
9108.298,17.87952
9114.084,17.88124
9119.869,17.89127
9125.654,17.88678
9131.44,17.88298
9137.226,17.88098
9143.011,17.86092
9148.797,17.87195
9154.582,17.8722
9160.367,17.87424
9166.153,17.85939
9171.938,17.83837
9177.724,17.84726
9183.51,17.84129
9189.295,17.78964
9195.08,17.79312
9200.866,17.81034
9206.651,17.79266
9212.437,17.78723
9218.223,17.78433
9224.008,17.77905
9229.793,17.77231
9235.579,17.7639
9241.364,17.75652
9247.15,17.77826
9252.936,17.76052
9258.721,17.72696
9264.507,17.73814
9270.292,17.73721
9276.077,17.71787
9281.863,17.72495
9287.648,17.6763
9293.434,17.69879
9299.22,17.6896
9305.005,17.7159
9310.79,17.71643
9316.576,17.72504
9322.361,17.73333
9328.146,17.73957
9333.933,17.74308
9339.718,17.7262
9345.503,17.74728
9351.289,17.72972
9357.074,17.69871
9362.859,17.69447
9368.646,17.68461
9374.431,17.64631
9380.217,17.64154
9386.002,17.62884
9391.787,17.60581
9397.573,17.60053
9403.358,17.57557
9409.144,17.56634
9414.93,17.54615
9420.715,17.52075
9426.5,17.50031
9432.286,17.47114
9438.071,17.44973
9443.856,17.41736
9449.643,17.38195
9455.428,17.35224
9461.213,17.33776
9466.999,17.30004
9472.784,17.29703
9478.569,17.2698
9484.355,17.27911
9490.141,17.24681
9495.926,17.24239
9501.712,17.21889
9507.497,17.20919
9513.282,17.21875
9519.068,17.17332
9524.854,17.17827
9530.64,17.16708
9536.425,17.1356
9542.21,17.10786
9547.996,17.07969
9553.781,17.06593
9559.566,17.0559
9565.353,17.02193
9571.138,17.0183
9576.923,16.98837
9582.709,16.96202
9588.494,16.97497
9594.279,16.96866
9600.065,16.95625
9605.851,16.96655
9611.636,17.01811
9617.422,17.05396
9623.207,17.07228
9628.992,17.10908
9634.778,17.15684
9640.563,17.17311
9646.349,17.23177
9652.135,17.27548
9657.92,17.3184
9663.706,17.35814
9669.491,17.4436
9675.276,17.47185
9681.063,17.51712
9686.848,17.56103
9692.633,17.58342
9698.419,17.6188
9704.204,17.68604
9709.989,17.7169
9715.775,17.77442
9721.561,17.81625
9727.346,17.8626
9733.132,17.93193
9738.917,17.96693
9744.702,18.00595
9750.488,18.03903
9756.273,18.08877
9762.059,18.09862
9767.845,18.10181
9773.63,18.11138
9779.415,18.13969
9785.201,18.13212
9790.986,18.1584
9796.771,18.15916
9802.558,18.13402
9808.343,18.14041
9814.129,18.11091
9819.914,18.15588
9825.699,18.142
9831.485,18.18025
9837.271,18.20706
9843.056,18.22193
9848.842,18.27197
9854.627,18.31717
9860.412,18.39618
9866.198,18.42348
9871.983,18.47001
9877.769,18.53758
9883.555,18.56899
9889.34,18.66356
9895.125,18.65901
9900.911,18.68428
9906.696,18.74756
9912.481,18.75152
9918.268,18.80892
9924.053,18.81437
9929.838,18.88204
9935.624,18.90168
9941.409,18.93591
9947.195,18.97021
9952.98,18.9885
9958.766,19.03929
9964.552,19.04288
9970.337,19.11218
9976.122,19.11332
9981.908,19.13254
9987.693,19.14919
9993.479,19.18492
9999.265,19.20015
10005.05,19.18245
10010.83,19.22137
10016.62,19.27058
10022.41,19.2401
10028.19,19.26659
10033.98,19.29769
10039.76,19.32178
10045.55,19.361
10051.33,19.39276
10057.12,19.41521
10062.9,19.41197
10068.69,19.42061
10074.48,19.45416
10080.26,19.46841
10086.05,19.48975
10091.83,19.47668
10097.62,19.49668
10103.4,19.50307
10109.19,19.53376
10114.97,19.48931
10120.76,19.53412
10126.54,19.58418
10132.33,19.55421
10138.12,19.57297
10143.9,19.57441
10149.69,19.53837
10155.47,19.58311
10161.26,19.58132
10167.04,19.59804
10172.83,19.60667
10178.61,19.56721
10184.4,19.62073
10190.19,19.62275
10195.97,19.63154
10201.76,19.6321
10207.54,19.64983
10213.33,19.6662
10219.11,19.6489
10224.9,19.62549
10230.68,19.60344
10236.47,19.63695
10242.25,19.59393
10248.04,19.6029
10253.83,19.64454
10259.61,19.63759
10265.4,19.62582
10271.18,19.63407
10276.97,19.61728
10282.75,19.59886
10288.54,19.62871
10294.32,19.61059
10300.11,19.62658
10305.9,19.61839
10311.68,19.588
10317.47,19.59004
10323.25,19.64133
10329.04,19.59249
10334.82,19.61562
10340.61,19.58915
10346.39,19.61511
10352.18,19.62692
10357.96,19.63783
10363.75,19.60136
10369.54,19.60538
10375.32,19.58308
10381.11,19.57892
10386.89,19.59889
10392.68,19.53698
10398.46,19.53802
10404.25,19.57984
10410.03,19.51359
10415.82,19.51435
10421.61,19.54893
10427.39,19.51388
10433.18,19.46941
10438.96,19.46883
10444.75,19.52253
10450.53,19.40833
10456.32,19.4648
10462.1,19.40452
10467.89,19.35574
10473.67,19.38671
10479.46,19.30917
10485.25,19.3154
10491.03,19.33948
10496.82,19.23364
10502.6,19.18035
10508.39,19.18171
10514.17,19.13447
10519.96,19.07298
10525.74,19.0299
10531.53,19.01118
10537.32,18.99269
10543.1,18.9291
10548.89,18.83962
10554.67,18.80875
10560.46,18.63917
10566.24,18.6067
10572.03,18.55891
10577.81,18.36594
10583.6,18.31697
10589.38,18.26594
10595.17,18.15781
10600.96,18.03183
10606.74,17.91687
10612.53,17.76667
10618.31,17.68689
10624.1,17.54056
10629.88,17.4068
10635.67,17.24911
10641.45,17.13965
10647.24,16.98923
10653.03,16.87762
10658.81,16.7105
10664.6,16.60228
10670.38,16.47412
10676.17,16.33926
10681.95,16.2821
10687.74,16.14805
10693.52,16.07343
10699.31,15.96567
10705.09,15.96946
10710.88,15.97084
10716.67,15.84823
10722.45,15.9034
10728.24,15.89396
10734.02,15.91685
10739.81,15.90767
10745.59,15.96413
10751.38,16.04445
10757.16,16.1318
10762.95,16.11694
10768.74,16.18668
10774.52,16.28525
10780.31,16.34031
10786.09,16.4286
10791.88,16.52852
10797.66,16.59509
10803.45,16.73055
10809.23,16.8873
10815.02,17.01582
10820.8,17.05677
10826.59,17.19838
10832.38,17.26332
10838.16,17.46635
10843.95,17.53162
10849.73,17.65396
10855.52,17.67349
10861.3,17.8627
10867.09,17.98801
10872.87,18.06938
10878.66,18.17653
10884.45,18.26956
10890.23,18.29905
10896.02,18.43685
10901.8,18.57941
10907.59,18.65629
10913.37,18.72487
10919.16,18.81889
10924.94,18.88444
10930.73,18.94383
10936.51,19.08578
10942.3,19.05783
10948.09,19.18291
10953.87,19.25057
10959.66,19.41554
10965.44,19.48267
10971.23,19.5849
10977.01,19.50763
10982.8,19.68003
10988.58,19.6262
10994.37,19.74212
11000.16,19.78165
11005.94,19.81167
11011.73,19.87279
11017.51,19.87358
11023.3,19.99896
11029.08,20.02914
11034.87,19.93718
11040.65,20.10457
11046.44,20.05261
11052.22,20.03466
11058.01,20.13064
11063.79,20.17628
11069.58,20.18556
11075.37,20.19524
11081.15,20.147
11086.94,20.2046
11092.72,20.17336
11098.51,20.20449
11104.29,20.27273
11110.08,20.23583
11115.87,20.24764
11121.65,20.24467
11127.44,20.29821
11133.22,20.28751
11139.01,20.24646
11144.79,20.38205
11150.58,20.32762
11156.36,20.36884
11162.15,20.50055
11167.93,20.41377
11173.72,20.44597
11179.5,20.42346
11185.29,20.56269
11191.08,20.57539
11196.86,20.53877
11202.65,20.62601
11208.43,20.6673
11214.22,20.74184
11220.0,20.73219
11225.79,20.76982
11231.58,20.84716
11237.36,20.93231
11243.15,20.85247
11248.93,20.97097
11254.72,20.91407
11260.5,21.05659
11266.29,20.96481
11272.07,21.0169
11277.86,21.11232
11283.64,21.1018
11289.43,21.1017
11295.21,21.08835
11301.0,21.13226
11306.79,21.15489
11312.57,21.15679
11318.36,21.12545
11324.14,21.14594
11329.93,21.19287
11335.71,21.27986
11341.5,21.20256
11347.28,21.34832
11353.07,21.29124
11358.86,21.27693
11364.64,21.31643
11370.43,21.20901
11376.21,21.30202
11382.0,21.21258
11387.78,21.25574
11393.57,21.48328
11399.35,21.3496
11405.14,21.28462
11410.92,21.3291
11416.71,21.4192
11422.5,21.3085
11428.28,21.40155
11434.07,21.43676
11439.85,21.47382
11445.64,21.41748
11451.42,21.48217
11457.21,21.49517
11462.99,21.50776
11468.78,21.54876
11474.57,21.54285
11480.35,21.6048
11486.14,21.50874
11491.92,21.62515
11497.71,21.59031
11503.49,21.63348
11509.28,21.594
11515.06,21.61169
11520.85,21.64684
11526.63,21.75109
11532.42,21.7494
11538.21,21.71476
11543.99,21.71524
11549.78,21.69651
11555.56,21.66663
11561.35,21.69519
11567.13,21.68769
11572.92,21.63543
11578.7,21.80293
11584.49,21.86062
11590.28,21.79924
11596.06,21.78554
11601.85,21.93552
11607.63,21.79517
11613.42,21.81866
11619.2,21.76946
11624.99,21.98786
11630.77,21.80996
11636.56,21.75941
11642.34,21.81392
11648.13,21.93821
11653.92,21.85546
11659.7,21.94431
11665.49,21.82691
11671.27,21.94758
11677.06,21.94987
11682.84,21.83346
11688.63,21.86591
11694.41,21.97944
11700.2,21.91201
11705.99,21.86238
11711.77,21.88686
11717.56,21.94267
11723.34,21.9776
11729.13,21.87029
11734.91,21.91546
11740.7,21.85505
11746.48,21.95344
11752.27,21.9234
11758.05,21.87747
11763.84,22.12015
11769.63,21.90955
11775.41,22.04294
11781.2,21.94632
11786.98,21.80826
11792.77,21.9254
11798.55,21.835
11804.34,21.74756
11810.12,21.96856
11815.91,21.82577
11821.7,21.95663
11827.48,21.86561
11833.27,22.07121
11839.05,21.90077
11844.84,22.03284
11850.62,21.88247
11856.41,21.99766
11862.19,21.92708
11867.98,22.19643
11873.76,22.07451
11879.55,22.15749
11885.34,22.09127
11891.12,22.25595
11896.91,22.23126
11902.69,22.04677
11908.48,22.35373
11914.26,22.07772
11920.05,22.3235
11925.83,22.36524
11931.62,22.36806
11937.41,22.20506
11943.19,22.25781
11948.98,22.4752
11954.76,22.37922
11960.55,22.39546
11966.33,22.48465
11972.12,22.2247
11977.9,22.35571
11983.69,22.30623
11989.47,22.37213
11995.26,22.48372
11999.12,22.54968