File: Data/NIR/S0048HDPE_1.csv
Wavenumber,Intensity
3999.706,3.978348
4005.491,3.983276
4011.277,3.96935
4017.062,3.93409
4022.848,3.920413
4028.633,3.936825
4034.419,3.941154
4040.204,3.94035
4045.99,3.939381
4051.775,3.941967
4057.561,3.941515
4063.346,3.946574
4069.132,3.938954
4074.917,3.936688
4080.703,3.930391
4086.488,3.927378
4092.274,3.913732
4098.059,3.916995
4103.845,3.917075
4109.63,3.917731
4115.416,3.925569
4121.201,3.925845
4126.987,3.92345
4132.772,3.929341
4138.558,3.927237
4144.343,3.93291
4150.129,3.931289
4155.914,3.936564
4161.7,3.94029
4167.485,3.93898
4173.271,3.94521
4179.056,3.953651
4184.842,3.952665
4190.627,3.963446
4196.413,3.969806
4202.198,3.991805
4207.983,4.007791
4213.769,4.015153
4219.555,4.014551
4225.34,4.030244
4231.125,4.048839
4236.911,4.053895
4242.697,4.042304
4248.482,4.017576
4254.268,4.022011
4260.053,4.051879
4265.838,4.087141
4271.624,4.105677
4277.41,4.123482
4283.195,4.133966
4288.98,4.149196
4294.766,4.166398
4300.552,4.16251
4306.337,4.129751
4312.123,4.08579
4317.908,4.053071
4323.693,4.044492
4329.479,4.054021
4335.265,4.065735
4341.05,4.075682
4346.835,4.106275
4352.621,4.140236
4358.407,4.181104
4364.192,4.211982
4369.978,4.233265
4375.763,4.272129
4381.548,4.314091
4387.334,4.358385
4393.12,4.416984
4398.905,4.479198
4404.69,4.553522
4410.476,4.634275
4416.262,4.707883
4422.047,4.771132
4427.833,4.826869
4433.618,4.866799
4439.403,4.910454
4445.189,4.967149
4450.975,5.044927
4456.76,5.125205
4462.545,5.19272
4468.331,5.250075
4474.116,5.291948
4479.902,5.357141
4485.688,5.429276
4491.473,5.501573
4497.258,5.572851
4503.044,5.643936
4508.83,5.717186
4514.615,5.795994
4520.4,5.868873
4526.186,5.936228
4531.971,6.002699
4537.757,6.070516
4543.542,6.148072
4549.328,6.2205
4555.113,6.298471
4560.899,6.387545
4566.685,6.464432
4572.47,6.520484
4578.255,6.574058
4584.041,6.613301
4589.826,6.645721
4595.612,6.666389
4601.397,6.683849
4607.183,6.705219
4612.968,6.726582
4618.754,6.756396
4624.539,6.793198
4630.325,6.813652
4636.11,6.822824
4641.896,6.82865
4647.681,6.821589
4653.467,6.790758
4659.252,6.717237
4665.038,6.617591
4670.823,6.62072
4676.609,6.7399
4682.394,6.838446
4688.18,6.890813
4693.965,6.906198
4699.751,6.908004
4705.536,6.895676
4711.322,6.859289
4717.107,6.814628
4722.893,6.77795
4728.678,6.740888
4734.464,6.72222
4740.249,6.716613
4746.035,6.690001
4751.82,6.664057
4757.605,6.630425
4763.391,6.586223
4769.177,6.520882
4774.962,6.441065
4780.748,6.395014
4786.533,6.381346
4792.319,6.361896
4798.104,6.338001
4803.89,6.298586
4809.675,6.248595
4815.46,6.189456
4821.246,6.131436
4827.032,6.09399
4832.817,6.048879
4838.603,6.004617
4844.388,5.941843
4850.174,5.875498
4855.959,5.818897
4861.745,5.768257
4867.53,5.741894
4873.315,5.742706
4879.101,5.764029
4884.887,5.782965
4890.672,5.80829
4896.458,5.829938
4902.243,5.841376
4908.028,5.853362
4913.814,5.856203
4919.6,5.857004
4925.385,5.852173
4931.17,5.844481
4936.956,5.847057
4942.742,5.82775
4948.527,5.780041
4954.313,5.686323
4960.098,5.561339
4965.883,5.537853
4971.669,5.588399
4977.455,5.617767
4983.24,5.65451
4989.025,5.702211
4994.811,5.755591
5000.597,5.830095
5006.382,5.884838
5012.167,5.895696
5017.953,5.895734
5023.738,5.91319
5029.524,5.938893
5035.31,5.949193
5041.095,5.950578
5046.88,5.951246
5052.666,5.930162
5058.451,5.894228
5064.237,5.869971
5070.022,5.877222
5075.808,5.87898
5081.593,5.866796
5087.379,5.852598
5093.165,5.841857
5098.95,5.83068
5104.735,5.837724
5110.521,5.854894
5116.307,5.872347
5122.092,5.88056
5127.877,5.896409
5133.663,5.905793
5139.448,5.88943
5145.234,5.866633
5151.02,5.827833
5156.805,5.805857
5162.59,5.801195
5168.376,5.810807
5174.161,5.803678
5179.947,5.791899
5185.732,5.787931
5191.518,5.777525
5197.303,5.804775
5203.089,5.803946
5208.874,5.816212
5214.66,5.790903
5220.445,5.795747
5226.231,5.817444
5232.016,5.821899
5237.802,5.823344
5243.587,5.858249
5249.373,5.863857
5255.158,5.876328
5260.944,5.880515
5266.729,5.870893
5272.515,5.847687
5278.3,5.851312
5284.086,5.867115
5289.871,5.874791
5295.657,5.829003
5301.442,5.794982
5307.228,5.776619
5313.013,5.784778
5318.799,5.877697
5324.584,5.929522
5330.37,5.934538
5336.155,5.931851
5341.94,5.869986
5347.726,5.788033
5353.512,5.739441
5359.297,5.648846
5365.083,5.605699
5370.868,5.552708
5376.654,5.547531
5382.439,5.520126
5388.225,5.493197
5394.01,5.477814
5399.796,5.407987
5405.581,5.3654
5411.367,5.3201
5417.152,5.208021
5422.938,5.174311
5428.723,5.185242
5434.509,5.169278
5440.294,5.165701
5446.08,5.145275
5451.865,5.114146
5457.65,5.108943
5463.436,5.099071
5469.222,5.080062
5475.007,5.0744
5480.792,5.013851
5486.578,4.986617
5492.363,4.990362
5498.149,4.980512
5503.935,4.994707
5509.72,5.011177
5515.505,5.030097
5521.291,5.034969
5527.077,5.02918
5532.862,5.022281
5538.647,5.01111
5544.433,4.99486
5550.219,4.988887
5556.004,4.986865
5561.79,5.008486
5567.575,5.036351
5573.36,5.086556
5579.146,5.146946
5584.932,5.191119
5590.717,5.204844
5596.502,5.189224
5602.288,5.153893
5608.073,5.099505
5613.859,5.049646
5619.645,4.997217
5625.43,4.956207
5631.215,4.912519
5637.001,4.86686
5642.786,4.811104
5648.572,4.707226
5654.357,4.577818
5660.143,4.487977
5665.929,4.475135
5671.714,4.515352
5677.5,4.583872
5683.285,4.638348
5689.07,4.682202
5694.856,4.744277
5700.642,4.823396
5706.427,4.901928
5712.212,4.935111
5717.998,4.916169
5723.783,4.797647
5729.569,4.628113
5735.354,4.604296
5741.14,4.590158
5746.925,4.533277
5752.711,4.476907
5758.496,4.426532
5764.282,4.387106
5770.067,4.347373
5775.853,4.336318
5781.638,4.352171
5787.424,4.382764
5793.209,4.411466
5798.995,4.42657
5804.78,4.455493
5810.566,4.489595
5816.352,4.52383
5822.137,4.561332
5827.922,4.608162
5833.708,4.672645
5839.493,4.74269
5845.279,4.843358
5851.064,5.007505
5856.85,5.232805
5862.635,5.544891
5868.421,5.892128
5874.206,6.229899
5879.992,6.534821
5885.777,6.790571
5891.563,7.007879
5897.348,7.186259
5903.134,7.35375
5908.919,7.520476
5914.705,7.677326
5920.49,7.832633
5926.276,7.989092
5932.061,8.150712
5937.847,8.301969
5943.632,8.444098
5949.418,8.588268
5955.203,8.750267
5960.989,8.956638
5966.774,9.214799
5972.56,9.46702
5978.345,9.709564
5984.131,9.928211
5989.916,10.12895
5995.702,10.3201
6001.487,10.49687
6007.272,10.66132
6013.058,10.82679
6018.844,10.99557
6024.629,11.16127
6030.415,11.29862
6036.2,11.42559
6041.985,11.53654
6047.771,11.63846
6053.557,11.73621
6059.342,11.82108
6065.128,11.89144
6070.913,11.95812
6076.698,12.02168
6082.484,12.08859
6088.27,12.14058
6094.055,12.15418
6099.841,12.09183
6105.626,12.02463
6111.412,12.05218
6117.197,12.15569
6122.982,12.25088
6128.768,12.33652
6134.554,12.4086
6140.339,12.48065
6146.125,12.53687
6151.91,12.58705
6157.695,12.6311
6163.481,12.67958
6169.267,12.7382
6175.052,12.78653
6180.837,12.82025
6186.623,12.84895
6192.408,12.86649
6198.194,12.89646
6203.979,12.9133
6209.765,12.94707
6215.551,12.97384
6221.336,12.9938
6227.121,13.01659
6232.907,13.04643
6238.692,13.05412
6244.478,13.05433
6250.264,13.06231
6256.049,13.06226
6261.834,13.06897
6267.62,13.08047
6273.405,13.0885
6279.191,13.09614
6284.977,13.10275
6290.762,13.1023
6296.547,13.10868
6302.333,13.11988
6308.118,13.12679
6313.904,13.12442
6319.689,13.11405
6325.475,13.09192
6331.26,13.068
6337.046,13.03138
6342.831,13.00217
6348.617,12.96251
6354.402,12.91252
6360.188,12.87885
6365.974,12.81162
6371.759,12.72608
6377.544,12.65415
6383.33,12.62476
6389.115,12.60437
6394.901,12.58025
6400.687,12.52475
6406.472,12.43321
6412.257,12.32235
6418.043,12.24119
6423.828,12.20391
6429.614,12.17297
6435.399,12.13219
6441.185,12.03702
6446.97,11.91721
6452.756,11.78682
6458.541,11.63717
6464.327,11.4147
6470.112,11.07294
6475.897,10.65042
6481.684,10.38742
6487.469,10.41698
6493.254,10.59263
6499.04,10.77135
6504.825,10.92573
6510.61,11.05491
6516.396,11.13987
6522.182,11.2149
6527.967,11.28568
6533.753,11.33874
6539.538,11.38771
6545.324,11.43335
6551.109,11.46943
6556.895,11.50875
6562.68,11.5379
6568.466,11.6029
6574.251,11.65121
6580.037,11.70024
6585.822,11.71854
6591.607,11.7297
6597.393,11.74088
6603.179,11.73598
6608.964,11.74243
6614.75,11.73345
6620.535,11.72887
6626.32,11.71781
6632.106,11.6975
6637.892,11.67994
6643.677,11.64689
6649.463,11.6203
6655.248,11.58123
6661.034,11.54278
6666.819,11.48801
6672.604,11.46279
6678.39,11.41594
6684.176,11.36657
6689.961,11.30399
6695.747,11.24881
6701.532,11.17391
6707.317,11.1013
6713.103,11.02539
6718.889,10.93728
6724.674,10.86917
6730.459,10.81071
6736.245,10.75573
6742.03,10.68506
6747.816,10.61952
6753.602,10.56344
6759.387,10.49888
6765.173,10.44112
6770.958,10.35944
6776.743,10.25708
6782.529,10.13424
6788.314,10.00606
6794.1,9.861935
6799.886,9.716958
6805.671,9.567962
6811.457,9.448962
6817.242,9.308
6823.027,9.164803
6828.813,9.003834
6834.599,8.874026
6840.384,8.792682
6846.169,8.746905
6851.955,8.69615
6857.74,8.634443
6863.526,8.576487
6869.312,8.511753
6875.097,8.446022
6880.882,8.365253
6886.668,8.26989
6892.453,8.178742
6898.239,8.097322
6904.024,8.043586
6909.81,8.003396
6915.596,7.943194
6921.381,7.856937
6927.166,7.753472
6932.952,7.625352
6938.737,7.474334
6944.523,7.336896
6950.309,7.255145
6956.094,7.244152
6961.879,7.26174
6967.665,7.273031
6973.45,7.301956
6979.236,7.303611
6985.021,7.281567
6990.807,7.237829
6996.592,7.18934
7002.378,7.125502
7008.163,7.050616
7013.949,6.97486
7019.734,6.924222
7025.52,6.905226
7031.305,6.95152
7037.091,6.983127
7042.876,6.999763
7048.662,6.925187
7054.447,6.760857
7060.232,6.587034
7066.019,6.588115
7071.804,6.811229
7077.589,7.103094
7083.375,7.313046
7089.16,7.405238
7094.946,7.488352
7100.731,7.551342
7106.517,7.700422
7112.302,7.828698
7118.088,7.987975
7123.873,8.072219
7129.659,8.103945
7135.444,8.048652
7141.229,7.93861
7147.015,7.776972
7152.801,7.52458
7158.586,7.107963
7164.372,6.487555
7170.157,6.059693
7175.942,6.097557
7181.729,6.526225
7187.514,6.95599
7193.299,7.388587
7199.085,7.755143
7204.87,8.129676
7210.655,8.413707
7216.441,8.659993
7222.227,8.9276
7228.012,9.259222
7233.798,9.591242
7239.583,9.866385
7245.369,10.12999
7251.154,10.42578
7256.939,10.67336
7262.725,10.95794
7268.511,11.21255
7274.296,11.47404
7280.082,11.71138
7285.867,11.95675
7291.652,12.18095
7297.438,12.41495
7303.224,12.61627
7309.009,12.87757
7314.794,13.08019
7320.58,13.27754
7326.365,13.48968
7332.151,13.59863
7337.937,13.76069
7343.722,13.8589
7349.508,13.92284
7355.293,14.02167
7361.079,14.07644
7366.864,14.1539
7372.649,14.19604
7378.435,14.2543
7384.221,14.30285
7390.006,14.34859
7395.792,14.36757
7401.577,14.39808
7407.362,14.43179
7413.148,14.45816
7418.934,14.47729
7424.719,14.49754
7430.504,14.51669
7436.29,14.52993
7442.075,14.54024
7447.861,14.57173
7453.646,14.59084
7459.432,14.60581
7465.218,14.62264
7471.003,14.62916
7476.788,14.62374
7482.574,14.63301
7488.359,14.63122
7494.145,14.61854
7499.931,14.60275
7505.716,14.59214
7511.501,14.58937
7517.287,14.58437
7523.072,14.57661
7528.858,14.559
7534.644,14.55089
7540.429,14.53137
7546.214,14.50936
7552.0,14.48831
7557.785,14.46933
7563.571,14.45588
7569.356,14.43016
7575.142,14.41076
7580.927,14.39222
7586.713,14.36612
7592.498,14.33855
7598.284,14.30063
7604.069,14.29026
7609.854,14.25444
7615.641,14.21314
7621.426,14.1752
7627.211,14.1297
7632.997,14.0918
7638.782,14.04615
7644.568,13.99743
7650.354,13.97764
7656.139,13.93043
7661.924,13.89747
7667.71,13.86528
7673.495,13.8413
7679.281,13.814
7685.066,13.79858
7690.852,13.77802
7696.637,13.76535
7702.423,13.73236
7708.208,13.71047
7713.994,13.68891
7719.779,13.66148
7725.564,13.63145
7731.35,13.60462
7737.136,13.58994
7742.921,13.57796
7748.707,13.54907
7754.492,13.52285
7760.277,13.48125
7766.063,13.44262
7771.849,13.42203
7777.634,13.40346
7783.42,13.39464
7789.205,13.38323
7794.991,13.36555
7800.776,13.34567
7806.562,13.30164
7812.347,13.27493
7818.133,13.25392
7823.918,13.21651
7829.704,13.18269
7835.489,13.15512
7841.274,13.11418
7847.06,13.08017
7852.846,13.03384
7858.631,12.97486
7864.417,12.9169
7870.202,12.87368
7875.987,12.81269
7881.773,12.75428
7887.559,12.69906
7893.344,12.62677
7899.13,12.5906
7904.915,12.49628
7910.7,12.43966
7916.486,12.36155
7922.271,12.29264
7928.057,12.22337
7933.843,12.14111
7939.628,12.06237
7945.414,11.96632
7951.199,11.88331
7956.984,11.7951
7962.77,11.68288
7968.556,11.59948
7974.341,11.5023
7980.126,11.3899
7985.912,11.299
7991.697,11.18573
7997.483,11.08306
8003.269,10.96904
8009.054,10.85719
8014.839,10.73004
8020.625,10.60115
8026.41,10.48236
8032.196,10.33546
8037.981,10.21328
8043.767,10.07423
8049.553,9.914408
8055.338,9.774479
8061.124,9.622698
8066.909,9.478485
8072.694,9.322114
8078.48,9.157847
8084.266,9.011933
8090.051,8.834225
8095.836,8.686129
8101.622,8.523753
8107.407,8.344989
8113.192,8.173892
8118.979,7.989466
8124.764,7.826215
8130.55,7.627137
8136.335,7.446104
8142.12,7.253885
8147.906,7.060108
8153.691,6.892846
8159.477,6.724456
8165.263,6.528841
8171.048,6.36117
8176.833,6.195206
8182.619,6.038818
8188.404,5.903433
8194.189,5.785502
8199.976,5.705453
8205.761,5.612741
8211.546,5.559367
8217.332,5.537948
8223.117,5.532013
8228.902,5.542885
8234.688,5.551157
8240.474,5.58641
8246.259,5.585926
8252.045,5.612281
8257.83,5.64749
8263.616,5.696302
8269.401,5.769077
8275.187,5.842985
8280.973,5.927688
8286.758,6.039542
8292.543,6.173151
8298.329,6.289829
8304.114,6.410237
8309.899,6.547501
8315.686,6.671687
8321.471,6.793341
8327.256,6.93073
8333.042,7.057258
8338.827,7.192769
8344.612,7.355042
8350.398,7.534275
8356.184,7.709473
8361.969,7.906445
8367.755,8.080893
8373.54,8.264924
8379.325,8.421158
8385.111,8.584563
8390.896,8.714147
8396.683,8.786725
8402.468,8.812177
8408.253,8.80973
8414.039,8.769406
8419.824,8.72573
8425.609,8.718378
8431.396,8.782447
8437.181,8.888623
8442.966,9.074834
8448.752,9.285842
8454.537,9.488791
8460.322,9.651906
8466.108,9.790589
8471.894,9.91118
8477.679,10.09398
8483.465,10.27451
8489.25,10.46343
8495.035,10.60497
8500.821,10.69785
8506.606,10.77455
8512.392,10.78079
8518.178,10.84541
8523.963,10.9284
8529.748,10.96807
8535.534,10.96914
8541.319,10.90853
8547.105,10.77269
8552.891,10.56216
8558.676,10.30762
8564.462,10.14746
8570.247,10.26628
8576.032,10.51376
8581.818,10.78345
8587.604,11.08771
8593.389,11.42259
8599.175,11.76457
8604.96,12.09733
8610.745,12.41375
8616.531,12.67898
8622.316,12.95207
8628.102,13.15015
8633.888,13.35481
8639.673,13.5448
8645.458,13.70706
8651.244,13.86807
8657.029,13.99243
8662.814,14.11555
8668.601,14.21711
8674.386,14.32908
8680.172,14.44396
8685.957,14.55451
8691.742,14.66385
8697.528,14.79628
8703.313,14.91385
8709.099,15.02818
8714.885,15.15439
8720.67,15.26714
8726.455,15.3916
8732.241,15.52932
8738.026,15.64118
8743.812,15.77632
8749.598,15.87839
8755.383,15.99323
8761.168,16.07909
8766.954,16.15399
8772.739,16.2418
8778.524,16.31476
8784.311,16.37961
8790.096,16.44176
8795.881,16.47893
8801.667,16.51711
8807.452,16.57911
8813.237,16.60269
8819.023,16.61834
8824.809,16.64322
8830.595,16.6559
8836.38,16.69414
8842.165,16.69831
8847.951,16.7192
8853.736,16.72889
8859.521,16.73349
8865.308,16.75134
8871.093,16.74584
8876.878,16.76013
8882.664,16.75723
8888.449,16.75176
8894.234,16.75595
8900.021,16.77639
8905.806,16.75618
8911.591,16.72766
8917.377,16.72767
8923.162,16.71007
8928.947,16.71906
8934.733,16.68502
8940.519,16.68555
8946.304,16.69145
8952.09,16.69306
8957.875,16.68225
8963.661,16.70193
8969.446,16.70299
8975.231,16.70479
8981.018,16.72153
8986.803,16.72029
8992.588,16.72846
8998.374,16.74861
9004.159,16.77406
9009.944,16.75941
9015.73,16.79163
9021.516,16.80417
9027.301,16.82542
9033.087,16.82138
9038.872,16.82903
9044.657,16.85404
9050.443,16.84977
9056.229,16.86565
9062.014,16.8801
9067.8,16.8839
9073.585,16.88945
9079.37,16.89419
9085.156,16.89735
9090.941,16.89478
9096.727,16.90794
9102.513,16.9165
9108.298,16.91089
9114.084,16.91166
9119.869,16.90606
9125.654,16.89249
9131.44,16.90567
9137.226,16.88317
9143.011,16.87707
9148.797,16.87921
9154.582,16.86542
9160.367,16.86759
9166.153,16.84044
9171.938,16.81672
9177.724,16.82367
9183.51,16.79338
9189.295,16.77847
9195.08,16.77022
9200.866,16.77399
9206.651,16.74375
9212.437,16.75332
9218.223,16.72991
9224.008,16.72855
9229.793,16.72656
9235.579,16.70604
9241.364,16.69872
9247.15,16.69656
9252.936,16.68714
9258.721,16.65722
9264.507,16.66843
9270.292,16.65324
9276.077,16.62798
9281.863,16.63422
9287.648,16.58604
9293.434,16.62637
9299.22,16.59718
9305.005,16.60972
9310.79,16.62101
9316.576,16.61517
9322.361,16.62161
9328.146,16.64702
9333.933,16.59552
9339.718,16.61161
9345.503,16.62948
9351.289,16.59978
9357.074,16.57795
9362.859,16.5733
9368.646,16.54787
9374.431,16.52354
9380.217,16.50786
9386.002,16.49089
9391.787,16.46677
9397.573,16.44216
9403.358,16.42773
9409.144,16.41164
9414.93,16.36273
9420.715,16.34287
9426.5,16.30692
9432.286,16.29206
9438.071,16.25583
9443.856,16.22771
9449.643,16.19014
9455.428,16.16158
9461.213,16.12705
9466.999,16.0984
9472.784,16.04854
9478.569,16.05499
9484.355,16.03934
9490.141,16.01951
9495.926,15.99275
9501.712,15.98663
9507.497,15.96192
9513.282,15.95583
9519.068,15.95043
9524.854,15.93511
9530.64,15.89049
9536.425,15.89146
9542.21,15.86122
9547.996,15.83378
9553.781,15.80212
9559.566,15.78195
9565.353,15.75114
9571.138,15.69956
9576.923,15.71365
9582.709,15.67277
9588.494,15.66946
9594.279,15.65976
9600.065,15.64933
9605.851,15.65659
9611.636,15.68992
9617.422,15.75929
9623.207,15.76421
9628.992,15.81595
9634.778,15.85426
9640.563,15.86723
9646.349,15.93626
9652.135,15.96971
9657.92,16.03158
9663.706,16.06394
9669.491,16.1564
9675.276,16.17824
9681.063,16.19733
9686.848,16.2477
9692.633,16.30074
9698.419,16.34867
9704.204,16.36001
9709.989,16.43527
9715.775,16.51538
9721.561,16.53886
9727.346,16.5635
9733.132,16.63028
9738.917,16.68571
9744.702,16.6973
9750.488,16.76469
9756.273,16.78333
9762.059,16.80349
9767.845,16.82911
9773.63,16.80442
9779.415,16.85738
9785.201,16.83746
9790.986,16.84037
9796.771,16.8483
9802.558,16.84137
9808.343,16.83305
9814.129,16.82202
9819.914,16.82002
9825.699,16.83078
9831.485,16.86411
9837.271,16.90898
9843.056,16.9132
9848.842,16.95649
9854.627,16.99121
9860.412,17.05994
9866.198,17.09995
9871.983,17.1164
9877.769,17.21511
9883.555,17.24943
9889.34,17.3245
9895.125,17.35
9900.911,17.37174
9906.696,17.40509
9912.481,17.45087
9918.268,17.45743
9924.053,17.49443
9929.838,17.53114
9935.624,17.55462
9941.409,17.61526
9947.195,17.6128
9952.98,17.65822
9958.766,17.70964
9964.552,17.72379
9970.337,17.78815
9976.122,17.79427
9981.908,17.78458
9987.693,17.82044
9993.479,17.85154
9999.265,17.82757
10005.05,17.85224
10010.83,17.87495
10016.62,17.92775
10022.41,17.92826
10028.19,17.93003
10033.98,17.96051
10039.76,17.97659
10045.55,18.04974
10051.33,18.03682
10057.12,18.06552
10062.9,18.08093
10068.69,18.04427
10074.48,18.11287
10080.26,18.12187
10086.05,18.11309
10091.83,18.12525
10097.62,18.13422
10103.4,18.1585
10109.19,18.1285
10114.97,18.11847
10120.76,18.16479
10126.54,18.21385
10132.33,18.17334
10138.12,18.196
10143.9,18.21133
10149.69,18.19203
10155.47,18.19267
10161.26,18.16394
10167.04,18.23293
10172.83,18.22514
10178.61,18.17837
10184.4,18.20707
10190.19,18.23628
10195.97,18.23358
10201.76,18.23117
10207.54,18.2404
10213.33,18.22794
10219.11,18.21604
10224.9,18.22814
10230.68,18.21154
10236.47,18.19674
10242.25,18.19756
10248.04,18.19547
10253.83,18.20041
10259.61,18.19584
10265.4,18.198
10271.18,18.18035
10276.97,18.18582
10282.75,18.14287
10288.54,18.15569
10294.32,18.15576
10300.11,18.17896
10305.9,18.16332
10311.68,18.14779
10317.47,18.14999
10323.25,18.17052
10329.04,18.11959
10334.82,18.15644
10340.61,18.09976
10346.39,18.10982
10352.18,18.10764
10357.96,18.15915
10363.75,18.13254
10369.54,18.08838
10375.32,18.0721
10381.11,18.09613
10386.89,18.09186
10392.68,18.04163
10398.46,18.03088
10404.25,18.09247
10410.03,18.0529
10415.82,17.98341
10421.61,18.04333
10427.39,18.00635
10433.18,17.93515
10438.96,17.95408
10444.75,18.00488
10450.53,17.8992
10456.32,17.92999
10462.1,17.86473
10467.89,17.86968
10473.67,17.83026
10479.46,17.80782
10485.25,17.76273
10491.03,17.77332
10496.82,17.65079
10502.6,17.60943
10508.39,17.61603
10514.17,17.5603
10519.96,17.51999
10525.74,17.42967
10531.53,17.44499
10537.32,17.38406
10543.1,17.27607
10548.89,17.18314
10554.67,17.17533
10560.46,17.06319
10566.24,16.98898
10572.03,16.90419
10577.81,16.70531
10583.6,16.68773
10589.38,16.57653
10595.17,16.481
10600.96,16.35917
10606.74,16.27807
10612.53,16.07927
10618.31,15.97487
10624.1,15.83115
10629.88,15.71325
10635.67,15.49544
10641.45,15.37584
10647.24,15.2556
10653.03,15.07277
10658.81,14.9465
10664.6,14.82135
10670.38,14.69547
10676.17,14.5375
10681.95,14.4682
10687.74,14.30865
10693.52,14.23397
10699.31,14.21055
10705.09,14.15567
10710.88,14.15415
10716.67,14.05962
10722.45,14.06669
10728.24,14.08463
10734.02,14.09743
10739.81,14.09896
10745.59,14.08518
10751.38,14.17863
10757.16,14.2231
10762.95,14.32065
10768.74,14.33924
10774.52,14.45866
10780.31,14.58977
10786.09,14.64688
10791.88,14.70894
10797.66,14.85508
10803.45,14.9418
10809.23,15.03173
10815.02,15.21125
10820.8,15.27046
10826.59,15.36764
10832.38,15.48883
10838.16,15.63707
10843.95,15.79525
10849.73,15.85808
10855.52,15.96526
10861.3,16.11178
10867.09,16.21346
10872.87,16.31812
10878.66,16.44375
10884.45,16.4623
10890.23,16.59513
10896.02,16.65606
10901.8,16.79078
10907.59,16.87764
10913.37,16.9543
10919.16,17.04271
10924.94,17.10428
10930.73,17.14629
10936.51,17.30806
10942.3,17.35296
10948.09,17.44536
10953.87,17.55734
10959.66,17.64868
10965.44,17.76711
10971.23,17.80093
10977.01,17.78588
10982.8,17.88921
10988.58,17.93024
10994.37,18.0196
11000.16,18.00703
11005.94,18.10098
11011.73,18.12322
11017.51,18.15892
11023.3,18.28502
11029.08,18.24065
11034.87,18.25084
11040.65,18.32366
11046.44,18.31276
11052.22,18.39661
11058.01,18.43034
11063.79,18.42355
11069.58,18.44152
11075.37,18.45615
11081.15,18.47048
11086.94,18.45906
11092.72,18.45664
11098.51,18.54898
11104.29,18.49627
11110.08,18.47642
11115.87,18.50946
11121.65,18.52423
11127.44,18.52231
11133.22,18.45124
11139.01,18.47845
11144.79,18.6841
11150.58,18.63145
11156.36,18.65925
11162.15,18.73499
11167.93,18.65835
11173.72,18.70484
11179.5,18.78127
11185.29,18.77668
11191.08,18.82786
11196.86,18.84953
11202.65,18.84233
11208.43,18.94616
11214.22,19.00526
11220.0,19.03322
11225.79,19.00812
11231.58,19.09669
11237.36,19.15969
11243.15,19.031
11248.93,19.18448
11254.72,19.19275
11260.5,19.22968
11266.29,19.18968
11272.07,19.21769
11277.86,19.25758
11283.64,19.24811
11289.43,19.32202
11295.21,19.25032
11301.0,19.27822
11306.79,19.27335
11312.57,19.2608
11318.36,19.2251
11324.14,19.38083
11329.93,19.40929
11335.71,19.40224
11341.5,19.3536
11347.28,19.40736
11353.07,19.46173
11358.86,19.42997
11364.64,19.381
11370.43,19.40878
11376.21,19.43592
11382.0,19.54364
11387.78,19.49145
11393.57,19.59705
11399.35,19.4979
11405.14,19.51484
11410.92,19.52934
11416.71,19.56937
11422.5,19.4843
11428.28,19.62605
11434.07,19.5848
11439.85,19.66774
11445.64,19.50097
11451.42,19.66307
11457.21,19.65822
11462.99,19.60049
11468.78,19.64596
11474.57,19.70345
11480.35,19.78356
11486.14,19.67854
11491.92,19.80955
11497.71,19.72417
11503.49,19.76672
11509.28,19.76345
11515.06,19.80838
11520.85,19.80531
11526.63,19.76667
11532.42,19.78994
11538.21,19.79671
11543.99,19.83951
11549.78,19.88826
11555.56,19.85826
11561.35,19.86598
11567.13,19.77408
11572.92,19.87584
11578.7,19.96746
11584.49,19.91003
11590.28,19.8749
11596.06,19.98648
11601.85,19.9486
11607.63,19.82924
11613.42,19.96923
11619.2,19.85473
11624.99,19.96537
11630.77,19.93452
11636.56,19.89459
11642.34,19.93501
11648.13,20.03102
11653.92,19.97624
11659.7,20.07201
11665.49,19.90309
11671.27,20.1031
11677.06,19.95941
11682.84,19.9674
11688.63,19.98528
11694.41,20.03235
11700.2,19.84129
11705.99,19.98007
11711.77,19.98229
11717.56,20.02865
11723.34,20.07129
11729.13,19.91185
11734.91,19.96343
11740.7,20.06966
11746.48,19.94493
11752.27,20.07298
11758.05,20.02134
11763.84,20.06295
11769.63,19.97548
11775.41,19.93178
11781.2,19.88667
11786.98,19.95236
11792.77,19.92314
11798.55,19.89413
11804.34,20.03464
11810.12,19.98169
11815.91,20.02604
11821.7,20.04038
11827.48,19.98719
11833.27,20.10067
11839.05,19.96574
11844.84,20.03436
11850.62,19.83395
11856.41,20.00694
11862.19,20.00951
11867.98,19.97539
11873.76,19.98623
11879.55,20.16965
11885.34,20.00476
11891.12,20.05458
11896.91,20.15482
11902.69,20.17644
11908.48,20.20033
11914.26,19.98976
11920.05,20.2405
11925.83,20.29137
11931.62,20.29047
11937.41,20.19533
11943.19,20.2431
11948.98,20.3856
11954.76,20.26976
11960.55,20.45931
11966.33,20.29273
11972.12,20.11639
11977.9,20.22304
11983.69,20.14347
11989.47,20.27227
11995.26,20.30873
11999.12,20.23955