File: Data/NIR/S0040HDPE_2.csv
Wavenumber,Intensity
3999.706,3.733309
4005.491,3.737621
4011.277,3.728317
4017.062,3.714929
4022.848,3.712145
4028.633,3.722827
4034.419,3.727631
4040.204,3.724277
4045.99,3.729438
4051.775,3.730573
4057.561,3.733742
4063.346,3.736525
4069.132,3.733681
4074.917,3.736962
4080.703,3.737801
4086.488,3.740404
4092.274,3.737436
4098.059,3.735891
4103.845,3.74117
4109.63,3.741176
4115.416,3.745295
4121.201,3.746515
4126.987,3.745524
4132.772,3.747479
4138.558,3.750865
4144.343,3.753107
4150.129,3.752963
4155.914,3.759061
4161.7,3.760041
4167.485,3.761752
4173.271,3.770559
4179.056,3.77252
4184.842,3.777611
4190.627,3.782187
4196.413,3.792153
4202.198,3.805226
4207.983,3.812975
4213.769,3.819785
4219.555,3.826817
4225.34,3.835694
4231.125,3.839736
4236.911,3.848901
4242.697,3.848624
4248.482,3.842929
4254.268,3.842125
4260.053,3.85704
4265.838,3.86947
4271.624,3.873566
4277.41,3.880037
4283.195,3.884899
4288.98,3.88973
4294.766,3.897893
4300.552,3.898715
4306.337,3.885365
4312.123,3.881168
4317.908,3.875018
4323.693,3.865691
4329.479,3.870636
4335.265,3.876347
4341.05,3.879332
4346.835,3.888545
4352.621,3.893344
4358.407,3.907752
4364.192,3.915013
4369.978,3.926018
4375.763,3.941047
4381.548,3.966622
4387.334,3.999466
4393.12,4.045938
4398.905,4.105191
4404.69,4.187719
4410.476,4.278299
4416.262,4.36448
4422.047,4.435962
4427.833,4.497143
4433.618,4.54842
4439.403,4.597128
4445.189,4.667036
4450.975,4.75124
4456.76,4.836352
4462.545,4.902594
4468.331,4.955628
4474.116,4.999379
4479.902,5.071346
4485.688,5.147454
4491.473,5.230703
4497.258,5.305109
4503.044,5.376145
4508.83,5.453897
4514.615,5.530263
4520.4,5.598761
4526.186,5.667191
4531.971,5.72789
4537.757,5.804031
4543.542,5.875665
4549.328,5.950447
4555.113,6.029712
4560.899,6.111153
4566.685,6.184258
4572.47,6.239626
4578.255,6.290743
4584.041,6.337431
4589.826,6.366404
4595.612,6.390111
4601.397,6.406201
4607.183,6.432269
4612.968,6.460865
4618.754,6.490667
4624.539,6.527763
4630.325,6.551364
4636.11,6.564101
4641.896,6.574416
4647.681,6.572114
4653.467,6.547693
4659.252,6.495313
4665.038,6.417312
4670.823,6.428875
4676.609,6.523165
4682.394,6.611285
4688.18,6.657821
4693.965,6.667047
4699.751,6.669168
4705.536,6.65755
4711.322,6.622101
4717.107,6.577927
4722.893,6.551982
4728.678,6.531893
4734.464,6.52498
4740.249,6.524735
4746.035,6.506992
4751.82,6.485381
4757.605,6.458219
4763.391,6.424818
4769.177,6.366247
4774.962,6.297754
4780.748,6.263739
4786.533,6.254523
4792.319,6.241249
4798.104,6.223466
4803.89,6.19103
4809.675,6.150564
4815.46,6.09401
4821.246,6.04909
4827.032,6.012401
4832.817,5.979738
4838.603,5.9343
4844.388,5.879142
4850.174,5.815471
4855.959,5.763428
4861.745,5.7174
4867.53,5.691474
4873.315,5.698923
4879.101,5.718703
4884.887,5.744799
4890.672,5.77172
4896.458,5.794941
4902.243,5.812603
4908.028,5.823575
4913.814,5.829753
4919.6,5.829069
4925.385,5.826497
4931.17,5.823895
4936.956,5.82654
4942.742,5.808613
4948.527,5.763783
4954.313,5.669935
4960.098,5.542994
4965.883,5.521637
4971.669,5.575311
4977.455,5.607606
4983.24,5.648805
4989.025,5.6992
4994.811,5.760301
5000.597,5.841209
5006.382,5.896363
5012.167,5.911572
5017.953,5.911561
5023.738,5.934414
5029.524,5.960741
5035.31,5.976358
5041.095,5.981281
5046.88,5.98504
5052.666,5.966081
5058.451,5.926945
5064.237,5.910835
5070.022,5.919082
5075.808,5.920438
5081.593,5.908671
5087.379,5.892979
5093.165,5.883425
5098.95,5.872304
5104.735,5.882323
5110.521,5.903713
5116.307,5.918236
5122.092,5.934721
5127.877,5.953041
5133.663,5.965082
5139.448,5.955968
5145.234,5.933692
5151.02,5.902297
5156.805,5.882953
5162.59,5.878518
5168.376,5.888559
5174.161,5.88243
5179.947,5.875883
5185.732,5.875198
5191.518,5.871233
5197.303,5.900602
5203.089,5.90526
5208.874,5.913696
5214.66,5.889891
5220.445,5.89921
5226.231,5.925544
5232.016,5.930517
5237.802,5.932023
5243.587,5.97585
5249.373,5.978053
5255.158,5.995898
5260.944,6.000463
5266.729,5.997377
5272.515,5.973886
5278.3,5.974872
5284.086,5.998245
5289.871,6.009387
5295.657,5.964391
5301.442,5.936082
5307.228,5.920567
5313.013,5.931563
5318.799,6.024622
5324.584,6.07432
5330.37,6.08236
5336.155,6.077561
5341.94,6.014969
5347.726,5.935021
5353.512,5.878736
5359.297,5.787282
5365.083,5.740036
5370.868,5.689639
5376.654,5.677235
5382.439,5.654158
5388.225,5.624982
5394.01,5.605792
5399.796,5.53404
5405.581,5.483396
5411.367,5.422884
5417.152,5.298803
5422.938,5.261243
5428.723,5.266352
5434.509,5.247454
5440.294,5.242909
5446.08,5.225454
5451.865,5.189221
5457.65,5.183295
5463.436,5.169518
5469.222,5.148623
5475.007,5.136862
5480.792,5.065484
5486.578,5.029206
5492.363,5.025307
5498.149,5.025316
5503.935,5.047164
5509.72,5.065083
5515.505,5.08566
5521.291,5.098357
5527.077,5.090028
5532.862,5.089227
5538.647,5.076876
5544.433,5.053204
5550.219,5.051977
5556.004,5.052339
5561.79,5.077587
5567.575,5.121691
5573.36,5.186983
5579.146,5.262571
5584.932,5.315749
5590.717,5.327158
5596.502,5.306202
5602.288,5.265102
5608.073,5.203506
5613.859,5.140476
5619.645,5.076918
5625.43,5.02229
5631.215,4.9723
5637.001,4.905805
5642.786,4.820556
5648.572,4.664017
5654.357,4.446814
5660.143,4.287462
5665.929,4.275292
5671.714,4.358776
5677.5,4.485921
5683.285,4.592969
5689.07,4.66785
5694.856,4.754533
5700.642,4.8754
5706.427,4.986363
5712.212,5.046072
5717.998,5.025764
5723.783,4.865511
5729.569,4.612276
5735.354,4.556903
5741.14,4.514814
5746.925,4.409116
5752.711,4.311244
5758.496,4.223082
5764.282,4.154147
5770.067,4.109295
5775.853,4.098968
5781.638,4.114791
5787.424,4.150717
5793.209,4.191639
5798.995,4.230028
5804.78,4.276495
5810.566,4.335556
5816.352,4.393452
5822.137,4.466188
5827.922,4.552723
5833.708,4.660927
5839.493,4.775265
5845.279,4.927207
5851.064,5.148475
5856.85,5.445147
5862.635,5.817004
5868.421,6.216761
5874.206,6.586798
5879.992,6.911373
5885.777,7.175819
5891.563,7.397926
5897.348,7.578259
5903.134,7.751042
5908.919,7.917702
5914.705,8.067776
5920.49,8.206959
5926.276,8.343153
5932.061,8.481059
5937.847,8.612148
5943.632,8.735139
5949.418,8.858677
5955.203,9.006747
5960.989,9.195561
5966.774,9.423206
5972.56,9.646058
5978.345,9.858765
5984.131,10.05166
5989.916,10.22669
5995.702,10.38939
6001.487,10.53836
6007.272,10.68421
6013.058,10.82578
6018.844,10.97077
6024.629,11.11285
6030.415,11.24068
6036.2,11.34991
6041.985,11.44556
6047.771,11.53552
6053.557,11.62161
6059.342,11.69423
6065.128,11.75614
6070.913,11.81267
6076.698,11.87202
6082.484,11.93024
6088.27,11.96954
6094.055,11.97751
6099.841,11.89069
6105.626,11.78865
6111.412,11.81862
6117.197,11.94373
6122.982,12.04449
6128.768,12.13773
6134.554,12.21176
6140.339,12.29481
6146.125,12.35085
6151.91,12.40178
6157.695,12.44939
6163.481,12.49997
6169.267,12.54999
6175.052,12.59496
6180.837,12.63251
6186.623,12.65529
6192.408,12.67758
6198.194,12.70797
6203.979,12.72545
6209.765,12.7506
6215.551,12.78073
6221.336,12.79643
6227.121,12.82592
6232.907,12.84782
6238.692,12.85791
6244.478,12.86411
6250.264,12.87373
6256.049,12.87717
6261.834,12.89472
6267.62,12.90003
6273.405,12.90681
6279.191,12.92413
6284.977,12.92782
6290.762,12.93368
6296.547,12.9385
6302.333,12.95204
6308.118,12.95641
6313.904,12.95811
6319.689,12.95402
6325.475,12.94184
6331.26,12.91981
6337.046,12.8988
6342.831,12.87821
6348.617,12.84346
6354.402,12.80709
6360.188,12.77449
6365.974,12.72787
6371.759,12.65685
6377.544,12.59483
6383.33,12.57972
6389.115,12.56028
6394.901,12.54335
6400.687,12.4961
6406.472,12.42482
6412.257,12.33063
6418.043,12.26764
6423.828,12.23699
6429.614,12.21536
6435.399,12.17762
6441.185,12.10315
6446.97,12.00639
6452.756,11.89227
6458.541,11.76678
6464.327,11.57484
6470.112,11.28164
6475.897,10.91422
6481.684,10.68404
6487.469,10.71365
6493.254,10.86286
6499.04,11.02067
6504.825,11.14939
6510.61,11.26287
6516.396,11.3444
6522.182,11.41134
6527.967,11.46949
6533.753,11.51935
6539.538,11.56708
6545.324,11.6101
6551.109,11.64345
6556.895,11.6762
6562.68,11.71501
6568.466,11.76717
6574.251,11.81829
6580.037,11.85785
6585.822,11.87743
6591.607,11.89345
6597.393,11.8995
6603.179,11.90831
6608.964,11.90689
6614.75,11.91011
6620.535,11.90659
6626.32,11.89721
6632.106,11.88129
6637.892,11.8755
6643.677,11.84721
6649.463,11.83062
6655.248,11.79056
6661.034,11.76143
6666.819,11.7206
6672.604,11.69612
6678.39,11.65793
6684.176,11.62156
6689.961,11.56397
6695.747,11.51818
6701.532,11.45881
6707.317,11.39926
6713.103,11.32748
6718.889,11.25712
6724.674,11.19946
6730.459,11.14218
6736.245,11.09598
6742.03,11.03874
6747.816,10.98529
6753.602,10.93068
6759.387,10.8751
6765.173,10.82505
6770.958,10.74578
6776.743,10.66183
6782.529,10.55683
6788.314,10.44291
6794.1,10.31984
6799.886,10.18801
6805.671,10.05945
6811.457,9.944805
6817.242,9.826181
6823.027,9.696029
6828.813,9.542495
6834.599,9.435032
6840.384,9.359686
6846.169,9.317692
6851.955,9.266507
6857.74,9.215603
6863.526,9.157794
6869.312,9.097055
6875.097,9.039227
6880.882,8.965325
6886.668,8.870267
6892.453,8.792851
6898.239,8.709851
6904.024,8.661893
6909.81,8.616847
6915.596,8.565465
6921.381,8.48105
6927.166,8.38329
6932.952,8.261724
6938.737,8.123743
6944.523,7.98628
6950.309,7.904878
6956.094,7.889239
6961.879,7.907156
6967.665,7.918926
6973.45,7.944211
6979.236,7.939475
6985.021,7.917935
6990.807,7.882576
6996.592,7.827278
7002.378,7.77185
7008.163,7.692636
7013.949,7.626062
7019.734,7.570644
7025.52,7.553812
7031.305,7.597251
7037.091,7.629825
7042.876,7.652205
7048.662,7.571449
7054.447,7.415176
7060.232,7.235878
7066.019,7.230689
7071.804,7.45784
7077.589,7.743656
7083.375,7.954255
7089.16,8.052701
7094.946,8.127711
7100.731,8.197348
7106.517,8.350314
7112.302,8.484762
7118.088,8.643714
7123.873,8.737717
7129.659,8.763076
7135.444,8.722453
7141.229,8.616092
7147.015,8.454864
7152.801,8.20769
7158.586,7.797288
7164.372,7.1518
7170.157,6.670629
7175.942,6.684924
7181.729,7.141294
7187.514,7.586565
7193.299,8.025363
7199.085,8.397847
7204.87,8.770401
7210.655,9.060385
7216.441,9.308055
7222.227,9.570173
7228.012,9.891964
7233.798,10.21138
7239.583,10.4778
7245.369,10.72504
7251.154,11.00211
7256.939,11.24519
7262.725,11.50267
7268.511,11.73357
7274.296,11.98532
7280.082,12.20674
7285.867,12.43958
7291.652,12.6401
7297.438,12.85401
7303.224,13.04965
7309.009,13.27953
7314.794,13.4758
7320.58,13.66253
7326.365,13.84279
7332.151,13.94527
7337.937,14.10236
7343.722,14.1982
7349.508,14.25532
7355.293,14.35055
7361.079,14.39808
7366.864,14.46719
7372.649,14.50257
7378.435,14.56594
7384.221,14.60559
7390.006,14.64038
7395.792,14.66724
7401.577,14.7008
7407.362,14.72126
7413.148,14.75098
7418.934,14.77317
7424.719,14.79346
7430.504,14.81097
7436.29,14.82278
7442.075,14.83767
7447.861,14.8634
7453.646,14.88187
7459.432,14.90599
7465.218,14.91822
7471.003,14.9257
7476.788,14.93056
7482.574,14.93743
7488.359,14.92526
7494.145,14.92096
7499.931,14.91102
7505.716,14.91472
7511.501,14.91232
7517.287,14.90937
7523.072,14.90891
7528.858,14.8938
7534.644,14.895
7540.429,14.87308
7546.214,14.86285
7552.0,14.85106
7557.785,14.8309
7563.571,14.82204
7569.356,14.79842
7575.142,14.79409
7580.927,14.77183
7586.713,14.75091
7592.498,14.73387
7598.284,14.70574
7604.069,14.68754
7609.854,14.65615
7615.641,14.63583
7621.426,14.60552
7627.211,14.56026
7632.997,14.5323
7638.782,14.48944
7644.568,14.46143
7650.354,14.42859
7656.139,14.39724
7661.924,14.36933
7667.71,14.3443
7673.495,14.31159
7679.281,14.3018
7685.066,14.28287
7690.852,14.27659
7696.637,14.26174
7702.423,14.24092
7708.208,14.2166
7713.994,14.19928
7719.779,14.17557
7725.564,14.15633
7731.35,14.12799
7737.136,14.11843
7742.921,14.1094
7748.707,14.09219
7754.492,14.06092
7760.277,14.02083
7766.063,14.00102
7771.849,13.98083
7777.634,13.96311
7783.42,13.96336
7789.205,13.9519
7794.991,13.94173
7800.776,13.92426
7806.562,13.8893
7812.347,13.8636
7818.133,13.85031
7823.918,13.81644
7829.704,13.78456
7835.489,13.75938
7841.274,13.72832
7847.06,13.70012
7852.846,13.6645
7858.631,13.6048
7864.417,13.56167
7870.202,13.52974
7875.987,13.46292
7881.773,13.41035
7887.559,13.36565
7893.344,13.30696
7899.13,13.26539
7904.915,13.19355
7910.7,13.13651
7916.486,13.07504
7922.271,13.00918
7928.057,12.94629
7933.843,12.87091
7939.628,12.79645
7945.414,12.70695
7951.199,12.63334
7956.984,12.54975
7962.77,12.45952
7968.556,12.37805
7974.341,12.29193
7980.126,12.18815
7985.912,12.09211
7991.697,11.98798
7997.483,11.8964
8003.269,11.78475
8009.054,11.68222
8014.839,11.56617
8020.625,11.44179
8026.41,11.33661
8032.196,11.18903
8037.981,11.07849
8043.767,10.93778
8049.553,10.79155
8055.338,10.64883
8061.124,10.50561
8066.909,10.36576
8072.694,10.21325
8078.48,10.04885
8084.266,9.904277
8090.051,9.731663
8095.836,9.58282
8101.622,9.41929
8107.407,9.243491
8113.192,9.060214
8118.979,8.871274
8124.764,8.693644
8130.55,8.486518
8136.335,8.301426
8142.12,8.092222
8147.906,7.889056
8153.691,7.693852
8159.477,7.498848
8165.263,7.28562
8171.048,7.082727
8176.833,6.883234
8182.619,6.703386
8188.404,6.537138
8194.189,6.411236
8199.976,6.29255
8205.761,6.197522
8211.546,6.133217
8217.332,6.097703
8223.117,6.095284
8228.902,6.105533
8234.688,6.128564
8240.474,6.161256
8246.259,6.166386
8252.045,6.200601
8257.83,6.250837
8263.616,6.326645
8269.401,6.39472
8275.187,6.50311
8280.973,6.617188
8286.758,6.750981
8292.543,6.904231
8298.329,7.054417
8304.114,7.195637
8309.899,7.342018
8315.686,7.493708
8321.471,7.631902
8327.256,7.775624
8333.042,7.923311
8338.827,8.076812
8344.612,8.244309
8350.398,8.44266
8356.184,8.640881
8361.969,8.847681
8367.755,9.040277
8373.54,9.230927
8379.325,9.396916
8385.111,9.562646
8390.896,9.682685
8396.683,9.766941
8402.468,9.80501
8408.253,9.81043
8414.039,9.753517
8419.824,9.720729
8425.609,9.718323
8431.396,9.782086
8437.181,9.897981
8442.966,10.08582
8448.752,10.3028
8454.537,10.50949
8460.322,10.66238
8466.108,10.80394
8471.894,10.92513
8477.679,11.09939
8483.465,11.28879
8489.25,11.47382
8495.035,11.61804
8500.821,11.72264
8506.606,11.77991
8512.392,11.8019
8518.178,11.86025
8523.963,11.93584
8529.748,11.98424
8535.534,11.98527
8541.319,11.92601
8547.105,11.78951
8552.891,11.59899
8558.676,11.36663
8564.462,11.2012
8570.247,11.30767
8576.032,11.55537
8581.818,11.81924
8587.604,12.11626
8593.389,12.44848
8599.175,12.76355
8604.96,13.08106
8610.745,13.38131
8616.531,13.6348
8622.316,13.88531
8628.102,14.08245
8633.888,14.29416
8639.673,14.46502
8645.458,14.63761
8651.244,14.77231
8657.029,14.92112
8662.814,15.04264
8668.601,15.13862
8674.386,15.25661
8680.172,15.37171
8685.957,15.46791
8691.742,15.57569
8697.528,15.7127
8703.313,15.80861
8709.099,15.94232
8714.885,16.05522
8720.67,16.15899
8726.455,16.2678
8732.241,16.4106
8738.026,16.52118
8743.812,16.64088
8749.598,16.76064
8755.383,16.86781
8761.168,16.94857
8766.954,17.02722
8772.739,17.11058
8778.524,17.19776
8784.311,17.25087
8790.096,17.31713
8795.881,17.35201
8801.667,17.39361
8807.452,17.44667
8813.237,17.49184
8819.023,17.50573
8824.809,17.53514
8830.595,17.5586
8836.38,17.57676
8842.165,17.5876
8847.951,17.6193
8853.736,17.62236
8859.521,17.63004
8865.308,17.64068
8871.093,17.65812
8876.878,17.65087
8882.664,17.66698
8888.449,17.66529
8894.234,17.66738
8900.021,17.68263
8905.806,17.67203
8911.591,17.66722
8917.377,17.66206
8923.162,17.65162
8928.947,17.65296
8934.733,17.63684
8940.519,17.61674
8946.304,17.62363
8952.09,17.64903
8957.875,17.61491
8963.661,17.65644
8969.446,17.65697
8975.231,17.64909
8981.018,17.68544
8986.803,17.68198
8992.588,17.69015
8998.374,17.70321
9004.159,17.72289
9009.944,17.73026
9015.73,17.76909
9021.516,17.78817
9027.301,17.80965
9033.087,17.82208
9038.872,17.81452
9044.657,17.84755
9050.443,17.85716
9056.229,17.84955
9062.014,17.88031
9067.8,17.86726
9073.585,17.8772
9079.37,17.87967
9085.156,17.90724
9090.941,17.90575
9096.727,17.92457
9102.513,17.92802
9108.298,17.91908
9114.084,17.92397
9119.869,17.92715
9125.654,17.90629
9131.44,17.92219
9137.226,17.91888
9143.011,17.89435
9148.797,17.91172
9154.582,17.9198
9160.367,17.90971
9166.153,17.88389
9171.938,17.8763
9177.724,17.87448
9183.51,17.85157
9189.295,17.84121
9195.08,17.83901
9200.866,17.8357
9206.651,17.82122
9212.437,17.8229
9218.223,17.81312
9224.008,17.817
9229.793,17.80843
9235.579,17.79277
9241.364,17.78992
9247.15,17.79239
9252.936,17.79537
9258.721,17.76035
9264.507,17.76759
9270.292,17.76978
9276.077,17.74866
9281.863,17.75391
9287.648,17.71212
9293.434,17.74644
9299.22,17.72822
9305.005,17.73548
9310.79,17.73463
9316.576,17.76237
9322.361,17.75677
9328.146,17.77168
9333.933,17.75807
9339.718,17.78662
9345.503,17.7768
9351.289,17.76307
9357.074,17.72275
9362.859,17.71987
9368.646,17.71392
9374.431,17.68733
9380.217,17.6807
9386.002,17.66554
9391.787,17.64374
9397.573,17.62985
9403.358,17.60038
9409.144,17.57576
9414.93,17.58206
9420.715,17.53329
9426.5,17.5286
9432.286,17.47961
9438.071,17.46815
9443.856,17.4369
9449.643,17.4059
9455.428,17.38624
9461.213,17.35083
9466.999,17.32885
9472.784,17.29312
9478.569,17.27849
9484.355,17.28308
9490.141,17.25302
9495.926,17.24132
9501.712,17.23931
9507.497,17.23797
9513.282,17.21224
9519.068,17.19479
9524.854,17.19097
9530.64,17.15892
9536.425,17.1463
9542.21,17.11439
9547.996,17.10752
9553.781,17.07871
9559.566,17.05571
9565.353,17.01322
9571.138,17.02491
9576.923,16.98142
9582.709,16.96677
9588.494,16.97
9594.279,16.94353
9600.065,16.94849
9605.851,16.97077
9611.636,17.00918
9617.422,17.07271
9623.207,17.07971
9628.992,17.11408
9634.778,17.16415
9640.563,17.19015
9646.349,17.25522
9652.135,17.28391
9657.92,17.33636
9663.706,17.37352
9669.491,17.43112
9675.276,17.48863
9681.063,17.50439
9686.848,17.55443
9692.633,17.60316
9698.419,17.6738
9704.204,17.705
9709.989,17.73378
9715.775,17.81053
9721.561,17.84985
9727.346,17.89629
9733.132,17.95147
9738.917,18.00601
9744.702,18.03226
9750.488,18.08813
9756.273,18.1158
9762.059,18.14747
9767.845,18.12108
9773.63,18.12244
9779.415,18.19268
9785.201,18.18148
9790.986,18.21314
9796.771,18.20261
9802.558,18.17041
9808.343,18.18305
9814.129,18.16392
9819.914,18.20745
9825.699,18.20313
9831.485,18.21499
9837.271,18.23409
9843.056,18.27493
9848.842,18.3275
9854.627,18.37507
9860.412,18.42612
9866.198,18.4987
9871.983,18.51365
9877.769,18.62074
9883.555,18.65689
9889.34,18.68122
9895.125,18.74551
9900.911,18.74515
9906.696,18.79534
9912.481,18.81442
9918.268,18.87108
9924.053,18.89116
9929.838,18.91299
9935.624,18.93451
9941.409,19.01341
9947.195,19.03634
9952.98,19.05745
9958.766,19.11402
9964.552,19.10685
9970.337,19.17047
9976.122,19.19544
9981.908,19.17728
9987.693,19.20933
9993.479,19.24287
9999.265,19.27092
10005.05,19.2494
10010.83,19.29611
10016.62,19.3217
10022.41,19.32696
10028.19,19.3507
10033.98,19.39042
10039.76,19.43654
10045.55,19.44734
10051.33,19.47316
10057.12,19.47615
10062.9,19.51527
10068.69,19.49715
10074.48,19.54414
10080.26,19.54038
10086.05,19.59125
10091.83,19.60058
10097.62,19.57723
10103.4,19.57504
10109.19,19.6286
10114.97,19.60899
10120.76,19.61943
10126.54,19.66577
10132.33,19.63171
10138.12,19.65493
10143.9,19.66447
10149.69,19.64844
10155.47,19.66281
10161.26,19.64636
10167.04,19.69298
10172.83,19.69047
10178.61,19.67794
10184.4,19.7377
10190.19,19.71091
10195.97,19.72829
10201.76,19.72965
10207.54,19.73924
10213.33,19.71818
10219.11,19.74604
10224.9,19.74282
10230.68,19.70739
10236.47,19.70601
10242.25,19.68097
10248.04,19.72206
10253.83,19.71582
10259.61,19.7222
10265.4,19.71802
10271.18,19.70667
10276.97,19.72196
10282.75,19.69273
10288.54,19.70863
10294.32,19.70029
10300.11,19.69368
10305.9,19.70982
10311.68,19.67841
10317.47,19.66786
10323.25,19.71813
10329.04,19.68873
10334.82,19.67862
10340.61,19.67358
10346.39,19.69524
10352.18,19.68398
10357.96,19.72934
10363.75,19.6927
10369.54,19.67069
10375.32,19.64882
10381.11,19.66999
10386.89,19.6871
10392.68,19.63328
10398.46,19.59145
10404.25,19.6689
10410.03,19.62188
10415.82,19.60783
10421.61,19.65899
10427.39,19.62333
10433.18,19.54543
10438.96,19.52103
10444.75,19.58305
10450.53,19.52373
10456.32,19.5202
10462.1,19.4969
10467.89,19.44139
10473.67,19.46021
10479.46,19.4268
10485.25,19.4402
10491.03,19.3686
10496.82,19.31862
10502.6,19.26214
10508.39,19.26138
10514.17,19.2011
10519.96,19.15527
10525.74,19.12235
10531.53,19.03323
10537.32,19.01558
10543.1,18.95343
10548.89,18.87226
10554.67,18.82203
10560.46,18.71342
10566.24,18.6155
10572.03,18.57926
10577.81,18.44139
10583.6,18.38271
10589.38,18.29332
10595.17,18.16436
10600.96,18.03877
10606.74,17.93777
10612.53,17.78235
10618.31,17.70446
10624.1,17.5623
10629.88,17.43056
10635.67,17.25032
10641.45,17.1518
10647.24,16.96074
10653.03,16.83623
10658.81,16.68377
10664.6,16.5525
10670.38,16.42964
10676.17,16.27086
10681.95,16.20436
10687.74,16.06604
10693.52,16.02891
10699.31,15.93187
10705.09,15.90068
10710.88,15.88988
10716.67,15.80487
10722.45,15.78904
10728.24,15.78006
10734.02,15.83046
10739.81,15.86264
10745.59,15.87244
10751.38,15.9624
10757.16,16.01292
10762.95,16.08144
10768.74,16.11584
10774.52,16.24412
10780.31,16.31664
10786.09,16.37812
10791.88,16.46422
10797.66,16.60851
10803.45,16.69573
10809.23,16.89197
10815.02,16.93934
10820.8,17.06052
10826.59,17.12354
10832.38,17.26853
10838.16,17.42654
10843.95,17.49549
10849.73,17.6487
10855.52,17.66474
10861.3,17.88487
10867.09,18.02166
10872.87,18.12334
10878.66,18.21479
10884.45,18.26859
10890.23,18.38995
10896.02,18.47052
10901.8,18.58803
10907.59,18.66039
10913.37,18.7598
10919.16,18.86424
10924.94,18.93997
10930.73,19.04989
10936.51,19.14811
10942.3,19.14473
10948.09,19.25756
10953.87,19.36911
10959.66,19.46801
10965.44,19.52986
10971.23,19.64594
10977.01,19.62573
10982.8,19.75723
10988.58,19.74368
10994.37,19.82686
11000.16,19.85511
11005.94,19.89948
11011.73,20.01721
11017.51,20.02872
11023.3,20.0874
11029.08,20.04838
11034.87,20.09249
11040.65,20.25926
11046.44,20.17255
11052.22,20.23851
11058.01,20.25395
11063.79,20.26323
11069.58,20.34282
11075.37,20.30975
11081.15,20.31493
11086.94,20.31975
11092.72,20.29269
11098.51,20.35917
11104.29,20.38584
11110.08,20.3739
11115.87,20.37842
11121.65,20.36624
11127.44,20.4067
11133.22,20.4023
11139.01,20.41169
11144.79,20.48713
11150.58,20.49332
11156.36,20.56421
11162.15,20.58845
11167.93,20.51621
11173.72,20.62535
11179.5,20.64942
11185.29,20.69492
11191.08,20.70256
11196.86,20.75538
11202.65,20.80308
11208.43,20.88931
11214.22,20.9022
11220.0,20.92623
11225.79,20.92696
11231.58,20.9465
11237.36,21.01737
11243.15,20.98067
11248.93,21.06726
11254.72,21.13849
11260.5,21.21302
11266.29,21.14468
11272.07,21.15331
11277.86,21.28208
11283.64,21.24802
11289.43,21.24058
11295.21,21.17511
11301.0,21.27441
11306.79,21.29934
11312.57,21.30321
11318.36,21.29219
11324.14,21.37821
11329.93,21.40837
11335.71,21.38293
11341.5,21.28398
11347.28,21.44136
11353.07,21.47511
11358.86,21.41454
11364.64,21.44607
11370.43,21.43781
11376.21,21.46323
11382.0,21.49905
11387.78,21.46724
11393.57,21.55065
11399.35,21.52192
11405.14,21.51197
11410.92,21.63678
11416.71,21.56458
11422.5,21.50676
11428.28,21.58087
11434.07,21.59311
11439.85,21.59453
11445.64,21.62212
11451.42,21.71221
11457.21,21.67964
11462.99,21.72572
11468.78,21.73855
11474.57,21.67754
11480.35,21.79865
11486.14,21.68973
11491.92,21.79351
11497.71,21.77589
11503.49,21.82694
11509.28,21.86743
11515.06,21.82746
11520.85,21.84966
11526.63,21.97159
11532.42,21.90537
11538.21,21.9158
11543.99,21.83164
11549.78,21.93753
11555.56,21.88828
11561.35,21.96313
11567.13,21.89766
11572.92,21.93374
11578.7,21.93644
11584.49,21.91461
11590.28,22.03192
11596.06,22.00399
11601.85,21.98335
11607.63,21.97989
11613.42,22.0224
11619.2,22.04608
11624.99,22.1601
11630.77,22.05662
11636.56,22.14848
11642.34,22.03221
11648.13,22.09092
11653.92,22.02414
11659.7,22.19532
11665.49,21.95191
11671.27,22.1118
11677.06,22.04536
11682.84,22.0403
11688.63,22.11169
11694.41,22.21069
11700.2,22.12227
11705.99,22.10026
11711.77,21.98639
11717.56,22.15524
11723.34,22.13856
11729.13,22.08271
11734.91,22.01389
11740.7,21.96647
11746.48,22.18995
11752.27,22.16086
11758.05,22.06429
11763.84,22.24968
11769.63,22.09086
11775.41,22.14936
11781.2,22.12884
11786.98,22.0034
11792.77,22.08586
11798.55,22.12455
11804.34,22.03093
11810.12,22.17279
11815.91,22.17312
11821.7,22.09776
11827.48,22.00062
11833.27,22.17992
11839.05,22.09269
11844.84,22.16366
11850.62,22.10796
11856.41,22.19754
11862.19,22.23689
11867.98,22.38726
11873.76,22.27403
11879.55,22.33405
11885.34,22.2551
11891.12,22.49055
11896.91,22.43785
11902.69,22.19546
11908.48,22.50935
11914.26,22.36635
11920.05,22.50666
11925.83,22.5017
11931.62,22.50327
11937.41,22.53135
11943.19,22.41994
11948.98,22.66636
11954.76,22.52546
11960.55,22.6991
11966.33,22.51072
11972.12,22.47003
11977.9,22.39236
11983.69,22.5078
11989.47,22.6679
11995.26,22.61942
11999.12,22.57117