File: Data/NIR/S0048HDPE_6.csv
Wavenumber,Intensity
3999.706,3.260836
4005.491,3.254519
4011.277,3.253372
4017.062,3.23981
4022.848,3.233315
4028.633,3.238653
4034.419,3.24806
4040.204,3.24401
4045.99,3.247756
4051.775,3.250467
4057.561,3.25385
4063.346,3.26123
4069.132,3.253306
4074.917,3.253456
4080.703,3.254789
4086.488,3.250194
4092.274,3.248523
4098.059,3.246732
4103.845,3.25711
4109.63,3.257263
4115.416,3.257913
4121.201,3.25815
4126.987,3.260065
4132.772,3.261257
4138.558,3.259218
4144.343,3.261183
4150.129,3.263442
4155.914,3.268151
4161.7,3.264321
4167.485,3.272192
4173.271,3.276252
4179.056,3.284476
4184.842,3.286059
4190.627,3.292574
4196.413,3.302018
4202.198,3.307358
4207.983,3.318481
4213.769,3.326785
4219.555,3.331464
4225.34,3.336941
4231.125,3.350873
4236.911,3.354529
4242.697,3.345335
4248.482,3.339536
4254.268,3.344535
4260.053,3.360785
4265.838,3.378089
4271.624,3.385371
4277.41,3.395191
4283.195,3.40252
4288.98,3.410444
4294.766,3.42134
4300.552,3.417603
4306.337,3.404018
4312.123,3.385149
4317.908,3.369374
4323.693,3.366577
4329.479,3.374575
4335.265,3.371892
4341.05,3.383056
4346.835,3.391065
4352.621,3.416688
4358.407,3.43442
4364.192,3.446684
4369.978,3.472461
4375.763,3.496414
4381.548,3.525357
4387.334,3.568368
4393.12,3.632216
4398.905,3.704374
4404.69,3.796305
4410.476,3.90415
4416.262,3.998599
4422.047,4.080207
4427.833,4.153255
4433.618,4.205662
4439.403,4.264339
4445.189,4.341848
4450.975,4.425475
4456.76,4.520732
4462.545,4.594904
4468.331,4.664497
4474.116,4.712999
4479.902,4.786456
4485.688,4.866623
4491.473,4.947568
4497.258,5.019383
4503.044,5.091735
4508.83,5.175552
4514.615,5.251793
4520.4,5.331094
4526.186,5.389983
4531.971,5.459068
4537.757,5.533653
4543.542,5.603439
4549.328,5.676467
4555.113,5.757975
4560.899,5.840336
4566.685,5.909193
4572.47,5.975483
4578.255,6.022624
4584.041,6.063193
4589.826,6.094884
4595.612,6.119054
4601.397,6.134743
4607.183,6.162657
4612.968,6.188851
4618.754,6.215786
4624.539,6.248017
4630.325,6.273895
4636.11,6.289945
4641.896,6.300237
4647.681,6.292033
4653.467,6.269787
4659.252,6.202441
4665.038,6.117309
4670.823,6.125691
4676.609,6.230119
4682.394,6.329909
4688.18,6.381463
4693.965,6.399785
4699.751,6.403272
4705.536,6.398099
4711.322,6.369098
4717.107,6.33375
4722.893,6.302732
4728.678,6.27088
4734.464,6.260485
4740.249,6.254601
4746.035,6.234644
4751.82,6.213524
4757.605,6.1867
4763.391,6.144702
4769.177,6.089344
4774.962,6.015388
4780.748,5.977606
4786.533,5.965362
4792.319,5.952133
4798.104,5.924556
4803.89,5.893307
4809.675,5.852086
4815.46,5.791956
4821.246,5.738109
4827.032,5.701161
4832.817,5.662195
4838.603,5.62027
4844.388,5.558577
4850.174,5.493951
4855.959,5.433886
4861.745,5.392338
4867.53,5.359763
4873.315,5.362432
4879.101,5.383022
4884.887,5.409608
4890.672,5.438016
4896.458,5.459399
4902.243,5.473181
4908.028,5.491359
4913.814,5.497363
4919.6,5.489271
4925.385,5.485644
4931.17,5.483124
4936.956,5.486211
4942.742,5.472908
4948.527,5.4254
4954.313,5.327061
4960.098,5.203176
4965.883,5.172614
4971.669,5.234818
4977.455,5.265228
4983.24,5.297774
4989.025,5.350139
4994.811,5.410833
5000.597,5.48685
5006.382,5.538836
5012.167,5.55709
5017.953,5.550426
5023.738,5.571553
5029.524,5.600366
5035.31,5.613214
5041.095,5.619297
5046.88,5.617476
5052.666,5.594593
5058.451,5.556205
5064.237,5.539938
5070.022,5.548039
5075.808,5.547908
5081.593,5.539134
5087.379,5.525946
5093.165,5.50932
5098.95,5.500083
5104.735,5.511596
5110.521,5.530212
5116.307,5.544733
5122.092,5.554186
5127.877,5.56867
5133.663,5.574442
5139.448,5.563798
5145.234,5.53653
5151.02,5.500932
5156.805,5.474572
5162.59,5.472369
5168.376,5.477639
5174.161,5.474911
5179.947,5.463145
5185.732,5.457481
5191.518,5.453677
5197.303,5.475499
5203.089,5.480766
5208.874,5.483519
5214.66,5.466583
5220.445,5.469139
5226.231,5.487685
5232.016,5.489974
5237.802,5.496185
5243.587,5.531904
5249.373,5.521534
5255.158,5.547725
5260.944,5.555788
5266.729,5.54308
5272.515,5.525665
5278.3,5.529512
5284.086,5.542274
5289.871,5.547841
5295.657,5.507848
5301.442,5.475262
5307.228,5.445993
5313.013,5.460336
5318.799,5.560027
5324.584,5.610285
5330.37,5.611516
5336.155,5.606173
5341.94,5.542653
5347.726,5.466798
5353.512,5.401611
5359.297,5.332769
5365.083,5.285102
5370.868,5.232583
5376.654,5.218684
5382.439,5.196758
5388.225,5.165874
5394.01,5.142821
5399.796,5.079259
5405.581,5.030076
5411.367,4.96631
5417.152,4.851755
5422.938,4.817856
5428.723,4.807192
5434.509,4.793953
5440.294,4.79592
5446.08,4.768258
5451.865,4.740856
5457.65,4.734853
5463.436,4.7152
5469.222,4.705302
5475.007,4.683836
5480.792,4.625947
5486.578,4.590284
5492.363,4.582968
5498.149,4.584713
5503.935,4.602236
5509.72,4.623283
5515.505,4.646048
5521.291,4.650736
5527.077,4.642684
5532.862,4.640169
5538.647,4.623578
5544.433,4.611439
5550.219,4.596086
5556.004,4.600739
5561.79,4.614758
5567.575,4.655253
5573.36,4.719348
5579.146,4.784579
5584.932,4.840034
5590.717,4.851383
5596.502,4.83672
5602.288,4.792046
5608.073,4.734406
5613.859,4.672033
5619.645,4.618273
5625.43,4.555755
5631.215,4.50688
5637.001,4.446595
5642.786,4.372908
5648.572,4.232222
5654.357,4.021899
5660.143,3.861082
5665.929,3.839527
5671.714,3.914198
5677.5,4.030103
5683.285,4.119607
5689.07,4.187072
5694.856,4.271429
5700.642,4.379314
5706.427,4.480561
5712.212,4.528875
5717.998,4.508292
5723.783,4.357269
5729.569,4.115409
5735.354,4.062943
5741.14,4.039532
5746.925,3.949485
5752.711,3.851584
5758.496,3.76811
5764.282,3.695822
5770.067,3.645914
5775.853,3.630561
5781.638,3.653281
5787.424,3.690402
5793.209,3.732081
5798.995,3.770286
5804.78,3.814587
5810.566,3.869711
5816.352,3.920748
5822.137,3.990653
5827.922,4.076395
5833.708,4.17209
5839.493,4.273937
5845.279,4.40673
5851.064,4.604098
5856.85,4.862749
5862.635,5.194169
5868.421,5.532934
5874.206,5.854664
5879.992,6.13728
5885.777,6.367764
5891.563,6.560584
5897.348,6.720915
5903.134,6.877727
5908.919,7.017184
5914.705,7.159506
5920.49,7.29166
5926.276,7.430666
5932.061,7.569771
5937.847,7.700001
5943.632,7.82621
5949.418,7.950474
5955.203,8.089334
5960.989,8.269727
5966.774,8.495201
5972.56,8.718353
5978.345,8.926141
5984.131,9.115184
5989.916,9.300056
5995.702,9.461342
6001.487,9.612098
6007.272,9.759768
6013.058,9.903545
6018.844,10.05511
6024.629,10.195
6030.415,10.32387
6036.2,10.43154
6041.985,10.53183
6047.771,10.62443
6053.557,10.71087
6059.342,10.7856
6065.128,10.85122
6070.913,10.9094
6076.698,10.97097
6082.484,11.02263
6088.27,11.06681
6094.055,11.07962
6099.841,11.02278
6105.626,10.95955
6111.412,10.98478
6117.197,11.08555
6122.982,11.16783
6128.768,11.24448
6134.554,11.31012
6140.339,11.37085
6146.125,11.42418
6151.91,11.4657
6157.695,11.51482
6163.481,11.54936
6169.267,11.60009
6175.052,11.64926
6180.837,11.6726
6186.623,11.69621
6192.408,11.71642
6198.194,11.74174
6203.979,11.75857
6209.765,11.78538
6215.551,11.80186
6221.336,11.82947
6227.121,11.84981
6232.907,11.86531
6238.692,11.87563
6244.478,11.88149
6250.264,11.88603
6256.049,11.88171
6261.834,11.89439
6267.62,11.90226
6273.405,11.90552
6279.191,11.91377
6284.977,11.91766
6290.762,11.91938
6296.547,11.92323
6302.333,11.93868
6308.118,11.93133
6313.904,11.93443
6319.689,11.92086
6325.475,11.90086
6331.26,11.87739
6337.046,11.85034
6342.831,11.81463
6348.617,11.77761
6354.402,11.74008
6360.188,11.70865
6365.974,11.6444
6371.759,11.55371
6377.544,11.49109
6383.33,11.46465
6389.115,11.45185
6394.901,11.42816
6400.687,11.38198
6406.472,11.29332
6412.257,11.19004
6418.043,11.12215
6423.828,11.07487
6429.614,11.05639
6435.399,11.01114
6441.185,10.93108
6446.97,10.81825
6452.756,10.69292
6458.541,10.56718
6464.327,10.37172
6470.112,10.06059
6475.897,9.687891
6481.684,9.4505
6487.469,9.486765
6493.254,9.635505
6499.04,9.793382
6504.825,9.926009
6510.61,10.03197
6516.396,10.11958
6522.182,10.18849
6527.967,10.24568
6533.753,10.29747
6539.538,10.33716
6545.324,10.37497
6551.109,10.40181
6556.895,10.43878
6562.68,10.47373
6568.466,10.52483
6574.251,10.56706
6580.037,10.60083
6585.822,10.62626
6591.607,10.63916
6597.393,10.64712
6603.179,10.64207
6608.964,10.64368
6614.75,10.63901
6620.535,10.63245
6626.32,10.61459
6632.106,10.59985
6637.892,10.5862
6643.677,10.56448
6649.463,10.5275
6655.248,10.49555
6661.034,10.45782
6666.819,10.42306
6672.604,10.37901
6678.39,10.34127
6684.176,10.29545
6689.961,10.24172
6695.747,10.19161
6701.532,10.1311
6707.317,10.06485
6713.103,9.991554
6718.889,9.927917
6724.674,9.860774
6730.459,9.807158
6736.245,9.753611
6742.03,9.694574
6747.816,9.632783
6753.602,9.579911
6759.387,9.531714
6765.173,9.46755
6770.958,9.396006
6776.743,9.312507
6782.529,9.205185
6788.314,9.084001
6794.1,8.958815
6799.886,8.829947
6805.671,8.702617
6811.457,8.600952
6817.242,8.488149
6823.027,8.351491
6828.813,8.202972
6834.599,8.095245
6840.384,8.028822
6846.169,7.99325
6851.955,7.941957
6857.74,7.884813
6863.526,7.833674
6869.312,7.780727
6875.097,7.724467
6880.882,7.652125
6886.668,7.575221
6892.453,7.495107
6898.239,7.418653
6904.024,7.37376
6909.81,7.336629
6915.596,7.28133
6921.381,7.202309
6927.166,7.117072
6932.952,7.004143
6938.737,6.868735
6944.523,6.749911
6950.309,6.676947
6956.094,6.662978
6961.879,6.681981
6967.665,6.694693
6973.45,6.713089
6979.236,6.711857
6985.021,6.702297
6990.807,6.657367
6996.592,6.610514
7002.378,6.554507
7008.163,6.489211
7013.949,6.432194
7019.734,6.379759
7025.52,6.370391
7031.305,6.397294
7037.091,6.437546
7042.876,6.441241
7048.662,6.376757
7054.447,6.230775
7060.232,6.076001
7066.019,6.070554
7071.804,6.273791
7077.589,6.537302
7083.375,6.717819
7089.16,6.802361
7094.946,6.863664
7100.731,6.930556
7106.517,7.046679
7112.302,7.162478
7118.088,7.299826
7123.873,7.382225
7129.659,7.411457
7135.444,7.364907
7141.229,7.254385
7147.015,7.115726
7152.801,6.907834
7158.586,6.531928
7164.372,5.987411
7170.157,5.591332
7175.942,5.637012
7181.729,6.01373
7187.514,6.414045
7193.299,6.784777
7199.085,7.097779
7204.87,7.425907
7210.655,7.672878
7216.441,7.887217
7222.227,8.123512
7228.012,8.412261
7233.798,8.687013
7239.583,8.948842
7245.369,9.166348
7251.154,9.43708
7256.939,9.654498
7262.725,9.906822
7268.511,10.12601
7274.296,10.36326
7280.082,10.57673
7285.867,10.79475
7291.652,11.00525
7297.438,11.20834
7303.224,11.39444
7309.009,11.62518
7314.794,11.82085
7320.58,11.99323
7326.365,12.19048
7332.151,12.28573
7337.937,12.43906
7343.722,12.5206
7349.508,12.57903
7355.293,12.68156
7361.079,12.73434
7366.864,12.79876
7372.649,12.83817
7378.435,12.89841
7384.221,12.92597
7390.006,12.97071
7395.792,13.0056
7401.577,13.03355
7407.362,13.05236
7413.148,13.08197
7418.934,13.10133
7424.719,13.11429
7430.504,13.1255
7436.29,13.14664
7442.075,13.1618
7447.861,13.18121
7453.646,13.20466
7459.432,13.22074
7465.218,13.23283
7471.003,13.24399
7476.788,13.2449
7482.574,13.2439
7488.359,13.23946
7494.145,13.22622
7499.931,13.22145
7505.716,13.20884
7511.501,13.20445
7517.287,13.19194
7523.072,13.1923
7528.858,13.17886
7534.644,13.16355
7540.429,13.14732
7546.214,13.12943
7552.0,13.1079
7557.785,13.09507
7563.571,13.0724
7569.356,13.0475
7575.142,13.03757
7580.927,13.01266
7586.713,13.00109
7592.498,12.98124
7598.284,12.94903
7604.069,12.9158
7609.854,12.88485
7615.641,12.85293
7621.426,12.81704
7627.211,12.77824
7632.997,12.73297
7638.782,12.69268
7644.568,12.65624
7650.354,12.62429
7656.139,12.58848
7661.924,12.56038
7667.71,12.53152
7673.495,12.49296
7679.281,12.48224
7685.066,12.45933
7690.852,12.43712
7696.637,12.42429
7702.423,12.41506
7708.208,12.38088
7713.994,12.35309
7719.779,12.32972
7725.564,12.32131
7731.35,12.29173
7737.136,12.27744
7742.921,12.25909
7748.707,12.23584
7754.492,12.21204
7760.277,12.15475
7766.063,12.13509
7771.849,12.11018
7777.634,12.09738
7783.42,12.08831
7789.205,12.0664
7794.991,12.06057
7800.776,12.0359
7806.562,12.00272
7812.347,11.97557
7818.133,11.9524
7823.918,11.92713
7829.704,11.89796
7835.489,11.87177
7841.274,11.83453
7847.06,11.79863
7852.846,11.76047
7858.631,11.7162
7864.417,11.67588
7870.202,11.61166
7875.987,11.56817
7881.773,11.50617
7887.559,11.45432
7893.344,11.3839
7899.13,11.34335
7904.915,11.27972
7910.7,11.22428
7916.486,11.1595
7922.271,11.0864
7928.057,11.02819
7933.843,10.95238
7939.628,10.88031
7945.414,10.80495
7951.199,10.72027
7956.984,10.64618
7962.77,10.55723
7968.556,10.45502
7974.341,10.3775
7980.126,10.28702
7985.912,10.19914
7991.697,10.09905
7997.483,10.00551
8003.269,9.908477
8009.054,9.809896
8014.839,9.695502
8020.625,9.589931
8026.41,9.475979
8032.196,9.362251
8037.981,9.230522
8043.767,9.114841
8049.553,8.991469
8055.338,8.857103
8061.124,8.722079
8066.909,8.594993
8072.694,8.461178
8078.48,8.335052
8084.266,8.181975
8090.051,8.052007
8095.836,7.914147
8101.622,7.74742
8107.407,7.620397
8113.192,7.4638
8118.979,7.301688
8124.764,7.142934
8130.55,6.985233
8136.335,6.814803
8142.12,6.66397
8147.906,6.492033
8153.691,6.345201
8159.477,6.172077
8165.263,6.002988
8171.048,5.845244
8176.833,5.702877
8182.619,5.551932
8188.404,5.422758
8194.189,5.303034
8199.976,5.230278
8205.761,5.149088
8211.546,5.092227
8217.332,5.068853
8223.117,5.059725
8228.902,5.061535
8234.688,5.078727
8240.474,5.112579
8246.259,5.109231
8252.045,5.146023
8257.83,5.160205
8263.616,5.227393
8269.401,5.274501
8275.187,5.369439
8280.973,5.436066
8286.758,5.538361
8292.543,5.657832
8298.329,5.770044
8304.114,5.891376
8309.899,6.004872
8315.686,6.125237
8321.471,6.238369
8327.256,6.339808
8333.042,6.451947
8338.827,6.583293
8344.612,6.727139
8350.398,6.886498
8356.184,7.037524
8361.969,7.203471
8367.755,7.377142
8373.54,7.5252
8379.325,7.676461
8385.111,7.803718
8390.896,7.906596
8396.683,7.990604
8402.468,8.011864
8408.253,8.027495
8414.039,7.972485
8419.824,7.922709
8425.609,7.930395
8431.396,7.985447
8437.181,8.084002
8442.966,8.23355
8448.752,8.407799
8454.537,8.592131
8460.322,8.747528
8466.108,8.860965
8471.894,8.98204
8477.679,9.138374
8483.465,9.289181
8489.25,9.454847
8495.035,9.571548
8500.821,9.664728
8506.606,9.722794
8512.392,9.743984
8518.178,9.794645
8523.963,9.851735
8529.748,9.88685
8535.534,9.910316
8541.319,9.872475
8547.105,9.73996
8552.891,9.561558
8558.676,9.344092
8564.462,9.19393
8570.247,9.288615
8576.032,9.49511
8581.818,9.742862
8587.604,10.00601
8593.389,10.30768
8599.175,10.63643
8604.96,10.9174
8610.745,11.18984
8616.531,11.43194
8622.316,11.67112
8628.102,11.87549
8633.888,12.03832
8639.673,12.20802
8645.458,12.36965
8651.244,12.48914
8657.029,12.6347
8662.814,12.74029
8668.601,12.83623
8674.386,12.94714
8680.172,13.02469
8685.957,13.1365
8691.742,13.23657
8697.528,13.36701
8703.313,13.47925
8709.099,13.58282
8714.885,13.6964
8720.67,13.81646
8726.455,13.9277
8732.241,14.04185
8738.026,14.164
8743.812,14.2825
8749.598,14.38284
8755.383,14.47671
8761.168,14.57117
8766.954,14.65984
8772.739,14.73552
8778.524,14.80054
8784.311,14.85577
8790.096,14.90286
8795.881,14.94841
8801.667,14.99555
8807.452,15.03129
8813.237,15.06652
8819.023,15.07632
8824.809,15.10507
8830.595,15.13899
8836.38,15.15465
8842.165,15.17704
8847.951,15.173
8853.736,15.18194
8859.521,15.18495
8865.308,15.21554
8871.093,15.20859
8876.878,15.20921
8882.664,15.2186
8888.449,15.21391
8894.234,15.21647
8900.021,15.21097
8905.806,15.18286
8911.591,15.17718
8917.377,15.18363
8923.162,15.15943
8928.947,15.14751
8934.733,15.15112
8940.519,15.1359
8946.304,15.14277
8952.09,15.13439
8957.875,15.12852
8963.661,15.1223
8969.446,15.15491
8975.231,15.15779
8981.018,15.16428
8986.803,15.16324
8992.588,15.18373
8998.374,15.20237
9004.159,15.21887
9009.944,15.20275
9015.73,15.22985
9021.516,15.22682
9027.301,15.25947
9033.087,15.26497
9038.872,15.26377
9044.657,15.27949
9050.443,15.28188
9056.229,15.2929
9062.014,15.301
9067.8,15.31572
9073.585,15.29914
9079.37,15.30528
9085.156,15.33365
9090.941,15.31562
9096.727,15.33916
9102.513,15.32889
9108.298,15.33573
9114.084,15.3211
9119.869,15.31816
9125.654,15.32269
9131.44,15.30707
9137.226,15.29699
9143.011,15.29683
9148.797,15.28503
9154.582,15.26961
9160.367,15.28044
9166.153,15.25437
9171.938,15.25731
9177.724,15.23913
9183.51,15.23035
9189.295,15.20796
9195.08,15.18892
9200.866,15.18689
9206.651,15.18038
9212.437,15.18332
9218.223,15.18289
9224.008,15.1381
9229.793,15.13882
9235.579,15.14938
9241.364,15.14834
9247.15,15.11507
9252.936,15.11266
9258.721,15.10083
9264.507,15.06819
9270.292,15.08116
9276.077,15.07011
9281.863,15.02718
9287.648,15.02287
9293.434,15.02589
9299.22,15.03204
9305.005,15.05441
9310.79,15.04238
9316.576,15.0614
9322.361,15.0419
9328.146,15.05165
9333.933,15.0734
9339.718,15.05178
9345.503,15.03402
9351.289,15.0317
9357.074,15.03362
9362.859,15.01127
9368.646,14.98473
9374.431,14.97242
9380.217,14.93854
9386.002,14.93693
9391.787,14.88638
9397.573,14.87155
9403.358,14.88132
9409.144,14.84016
9414.93,14.812
9420.715,14.781
9426.5,14.78185
9432.286,14.72052
9438.071,14.71595
9443.856,14.68553
9449.643,14.65431
9455.428,14.6109
9461.213,14.57357
9466.999,14.54646
9472.784,14.53789
9478.569,14.52004
9484.355,14.49833
9490.141,14.49157
9495.926,14.45373
9501.712,14.46444
9507.497,14.44627
9513.282,14.41324
9519.068,14.40386
9524.854,14.36903
9530.64,14.36529
9536.425,14.33908
9542.21,14.32176
9547.996,14.28603
9553.781,14.25244
9559.566,14.26164
9565.353,14.23849
9571.138,14.20748
9576.923,14.19429
9582.709,14.17066
9588.494,14.15225
9594.279,14.12502
9600.065,14.13295
9605.851,14.142
9611.636,14.18171
9617.422,14.20637
9623.207,14.24374
9628.992,14.30425
9634.778,14.31976
9640.563,14.3403
9646.349,14.39027
9652.135,14.42736
9657.92,14.51062
9663.706,14.50797
9669.491,14.59506
9675.276,14.63791
9681.063,14.67956
9686.848,14.66448
9692.633,14.71385
9698.419,14.79188
9704.204,14.82276
9709.989,14.87962
9715.775,14.93531
9721.561,14.95408
9727.346,15.01675
9733.132,15.06389
9738.917,15.07466
9744.702,15.12095
9750.488,15.15359
9756.273,15.18232
9762.059,15.22111
9767.845,15.22697
9773.63,15.26182
9779.415,15.27207
9785.201,15.25616
9790.986,15.24815
9796.771,15.23678
9802.558,15.24777
9808.343,15.24552
9814.129,15.23897
9819.914,15.24812
9825.699,15.27581
9831.485,15.29226
9837.271,15.26874
9843.056,15.33893
9848.842,15.37413
9854.627,15.41818
9860.412,15.47573
9866.198,15.5094
9871.983,15.5531
9877.769,15.61724
9883.555,15.65961
9889.34,15.71064
9895.125,15.73741
9900.911,15.80095
9906.696,15.81355
9912.481,15.84301
9918.268,15.87304
9924.053,15.90628
9929.838,15.91328
9935.624,15.9981
9941.409,16.00425
9947.195,16.02288
9952.98,16.05674
9958.766,16.08293
9964.552,16.10711
9970.337,16.13351
9976.122,16.14539
9981.908,16.1761
9987.693,16.20737
9993.479,16.2243
9999.265,16.22989
10005.05,16.24899
10010.83,16.28156
10016.62,16.3021
10022.41,16.31631
10028.19,16.34305
10033.98,16.37383
10039.76,16.38408
10045.55,16.37796
10051.33,16.46083
10057.12,16.46888
10062.9,16.45706
10068.69,16.49725
10074.48,16.45966
10080.26,16.47647
10086.05,16.51423
10091.83,16.52386
10097.62,16.50596
10103.4,16.55027
10109.19,16.49831
10114.97,16.57797
10120.76,16.56065
10126.54,16.57847
10132.33,16.61002
10138.12,16.57672
10143.9,16.59729
10149.69,16.57462
10155.47,16.57335
10161.26,16.59845
10167.04,16.59189
10172.83,16.61691
10178.61,16.60241
10184.4,16.60513
10190.19,16.62671
10195.97,16.60318
10201.76,16.60455
10207.54,16.60394
10213.33,16.67324
10219.11,16.61686
10224.9,16.63802
10230.68,16.62635
10236.47,16.57323
10242.25,16.58089
10248.04,16.6053
10253.83,16.57723
10259.61,16.63058
10265.4,16.59832
10271.18,16.58726
10276.97,16.58949
10282.75,16.5588
10288.54,16.56562
10294.32,16.54668
10300.11,16.55735
10305.9,16.54076
10311.68,16.56923
10317.47,16.53495
10323.25,16.60348
10329.04,16.56078
10334.82,16.48981
10340.61,16.5412
10346.39,16.54597
10352.18,16.52202
10357.96,16.48939
10363.75,16.50593
10369.54,16.45881
10375.32,16.47712
10381.11,16.49796
10386.89,16.45859
10392.68,16.48176
10398.46,16.45569
10404.25,16.44269
10410.03,16.42074
10415.82,16.44637
10421.61,16.39605
10427.39,16.37219
10433.18,16.36166
10438.96,16.38428
10444.75,16.33007
10450.53,16.29907
10456.32,16.332
10462.1,16.24132
10467.89,16.27857
10473.67,16.23784
10479.46,16.25193
10485.25,16.19307
10491.03,16.14115
10496.82,16.03594
10502.6,16.05885
10508.39,16.00802
10514.17,15.96942
10519.96,15.95408
10525.74,15.88356
10531.53,15.79907
10537.32,15.71367
10543.1,15.72708
10548.89,15.63124
10554.67,15.56354
10560.46,15.51681
10566.24,15.39429
10572.03,15.36982
10577.81,15.25469
10583.6,15.13867
10589.38,15.05282
10595.17,14.98645
10600.96,14.84458
10606.74,14.72473
10612.53,14.61813
10618.31,14.49923
10624.1,14.40058
10629.88,14.23561
10635.67,14.11724
10641.45,13.94308
10647.24,13.85071
10653.03,13.70652
10658.81,13.56015
10664.6,13.46793
10670.38,13.28292
10676.17,13.19122
10681.95,13.15495
10687.74,12.99339
10693.52,12.96745
10699.31,12.87397
10705.09,12.79663
10710.88,12.72174
10716.67,12.77866
10722.45,12.75241
10728.24,12.74522
10734.02,12.76535
10739.81,12.79204
10745.59,12.84612
10751.38,12.87947
10757.16,12.91912
10762.95,13.02855
10768.74,13.02788
10774.52,13.08863
10780.31,13.19654
10786.09,13.27745
10791.88,13.41939
10797.66,13.47456
10803.45,13.58328
10809.23,13.64005
10815.02,13.81142
10820.8,13.84944
10826.59,13.9612
10832.38,14.10637
10838.16,14.23734
10843.95,14.38959
10849.73,14.48187
10855.52,14.47773
10861.3,14.58724
10867.09,14.72032
10872.87,14.86784
10878.66,14.91972
10884.45,14.98092
10890.23,15.0744
10896.02,15.15019
10901.8,15.27793
10907.59,15.36595
10913.37,15.47487
10919.16,15.53886
10924.94,15.6606
10930.73,15.71658
10936.51,15.85277
10942.3,15.88739
10948.09,15.88376
10953.87,16.08188
10959.66,16.15502
10965.44,16.19945
10971.23,16.17938
10977.01,16.2846
10982.8,16.37354
10988.58,16.39831
10994.37,16.47539
11000.16,16.53329
11005.94,16.47999
11011.73,16.55357
11017.51,16.61299
11023.3,16.73333
11029.08,16.66996
11034.87,16.70194
11040.65,16.77095
11046.44,16.78922
11052.22,16.8416
11058.01,16.84465
11063.79,16.80617
11069.58,16.87536
11075.37,16.88621
11081.15,16.94428
11086.94,16.93044
11092.72,16.95496
11098.51,17.02457
11104.29,16.95765
11110.08,16.9431
11115.87,16.92837
11121.65,16.98352
11127.44,16.92881
11133.22,16.98978
11139.01,16.99093
11144.79,17.07947
11150.58,17.046
11156.36,17.03961
11162.15,17.08677
11167.93,17.13408
11173.72,17.13933
11179.5,17.26173
11185.29,17.1967
11191.08,17.25341
11196.86,17.28139
11202.65,17.3345
11208.43,17.42489
11214.22,17.41722
11220.0,17.4418
11225.79,17.47817
11231.58,17.61997
11237.36,17.6042
11243.15,17.5345
11248.93,17.52057
11254.72,17.662
11260.5,17.64841
11266.29,17.57771
11272.07,17.72872
11277.86,17.67581
11283.64,17.69598
11289.43,17.63234
11295.21,17.80207
11301.0,17.75108
11306.79,17.78307
11312.57,17.83937
11318.36,17.76786
11324.14,17.91492
11329.93,17.9572
11335.71,17.89125
11341.5,17.85215
11347.28,17.89483
11353.07,17.86987
11358.86,17.8686
11364.64,17.89871
11370.43,17.90505
11376.21,17.89584
11382.0,17.94068
11387.78,17.98285
11393.57,17.9702
11399.35,17.94253
11405.14,17.93669
11410.92,17.92036
11416.71,17.87536
11422.5,18.05467
11428.28,18.0367
11434.07,18.06609
11439.85,18.04533
11445.64,18.00743
11451.42,18.17696
11457.21,18.08915
11462.99,18.09833
11468.78,18.16269
11474.57,18.14411
11480.35,18.1979
11486.14,18.17642
11491.92,18.29486
11497.71,18.22009
11503.49,18.18875
11509.28,18.17335
11515.06,18.15703
11520.85,18.24004
11526.63,18.28025
11532.42,18.45636
11538.21,18.33185
11543.99,18.40428
11549.78,18.3502
11555.56,18.31272
11561.35,18.4408
11567.13,18.41521
11572.92,18.39767
11578.7,18.34341
11584.49,18.28111
11590.28,18.42399
11596.06,18.31502
11601.85,18.30281
11607.63,18.37528
11613.42,18.31074
11619.2,18.41232
11624.99,18.39893
11630.77,18.38227
11636.56,18.50581
11642.34,18.44407
11648.13,18.52139
11653.92,18.43134
11659.7,18.45635
11665.49,18.43459
11671.27,18.45585
11677.06,18.45719
11682.84,18.3821
11688.63,18.38235
11694.41,18.38666
11700.2,18.36018
11705.99,18.36061
11711.77,18.44025
11717.56,18.35781
11723.34,18.23813
11729.13,18.28142
11734.91,18.3518
11740.7,18.24971
11746.48,18.28792
11752.27,18.20367
11758.05,18.32226
11763.84,18.32841
11769.63,18.27977
11775.41,18.12671
11781.2,18.36661
11786.98,18.30521
11792.77,18.13697
11798.55,18.22825
11804.34,18.17316
11810.12,18.06604
11815.91,18.27388
11821.7,18.23315
11827.48,18.20687
11833.27,18.0821
11839.05,18.17809
11844.84,18.12876
11850.62,18.12148
11856.41,18.18268
11862.19,18.25232
11867.98,18.05217
11873.76,18.12648
11879.55,18.12068
11885.34,18.12178
11891.12,18.14591
11896.91,18.12519
11902.69,18.01223
11908.48,17.95617
11914.26,18.0374
11920.05,18.10778
11925.83,17.86982
11931.62,18.09858
11937.41,18.01191
11943.19,17.81139
11948.98,17.9561
11954.76,17.94315
11960.55,17.91322
11966.33,18.01688
11972.12,17.97334
11977.9,17.93258
11983.69,17.89433
11989.47,17.8394
11995.26,17.91183
11999.12,17.75727