File: Data/NIR/S0040HDPE_4.csv
Wavenumber,Intensity
3999.706,1.950652
4005.491,1.943465
4011.277,1.94048
4017.062,1.916985
4022.848,1.915262
4028.633,1.918436
4034.419,1.919086
4040.204,1.916429
4045.99,1.923888
4051.775,1.9208
4057.561,1.921886
4063.346,1.919627
4069.132,1.914563
4074.917,1.916234
4080.703,1.914536
4086.488,1.904579
4092.274,1.899705
4098.059,1.900803
4103.845,1.904749
4109.63,1.902081
4115.416,1.905943
4121.201,1.909194
4126.987,1.909293
4132.772,1.909989
4138.558,1.908394
4144.343,1.907746
4150.129,1.908481
4155.914,1.915297
4161.7,1.912664
4167.485,1.916636
4173.271,1.920025
4179.056,1.925265
4184.842,1.923498
4190.627,1.927999
4196.413,1.93337
4202.198,1.936169
4207.983,1.947984
4213.769,1.951161
4219.555,1.95534
4225.34,1.957754
4231.125,1.965078
4236.911,1.971277
4242.697,1.961094
4248.482,1.948422
4254.268,1.951195
4260.053,1.966342
4265.838,1.980885
4271.624,1.989112
4277.41,1.994689
4283.195,2.005043
4288.98,2.01115
4294.766,2.01654
4300.552,2.01207
4306.337,2.000631
4312.123,1.980407
4317.908,1.964283
4323.693,1.958363
4329.479,1.962692
4335.265,1.9654
4341.05,1.977747
4346.835,1.986442
4352.621,2.006152
4358.407,2.023482
4364.192,2.034975
4369.978,2.056253
4375.763,2.074304
4381.548,2.099539
4387.334,2.130691
4393.12,2.172292
4398.905,2.226047
4404.69,2.289852
4410.476,2.359868
4416.262,2.426284
4422.047,2.485304
4427.833,2.53579
4433.618,2.569056
4439.403,2.62076
4445.189,2.674209
4450.975,2.744399
4456.76,2.814965
4462.545,2.877635
4468.331,2.923964
4474.116,2.959288
4479.902,3.021755
4485.688,3.096328
4491.473,3.173568
4497.258,3.240468
4503.044,3.313833
4508.83,3.387159
4514.615,3.459475
4520.4,3.529422
4526.186,3.592521
4531.971,3.652445
4537.757,3.724987
4543.542,3.788472
4549.328,3.862292
4555.113,3.933924
4560.899,4.012675
4566.685,4.083713
4572.47,4.145458
4578.255,4.191513
4584.041,4.232209
4589.826,4.263649
4595.612,4.285106
4601.397,4.294978
4607.183,4.317993
4612.968,4.350804
4618.754,4.381784
4624.539,4.414916
4630.325,4.439303
4636.11,4.451502
4641.896,4.461182
4647.681,4.458885
4653.467,4.436153
4659.252,4.374259
4665.038,4.296179
4670.823,4.307837
4676.609,4.400404
4682.394,4.491651
4688.18,4.536002
4693.965,4.546296
4699.751,4.544203
4705.536,4.526657
4711.322,4.488591
4717.107,4.446303
4722.893,4.413729
4728.678,4.389629
4734.464,4.380387
4740.249,4.37947
4746.035,4.360305
4751.82,4.33542
4757.605,4.309914
4763.391,4.273732
4769.177,4.212986
4774.962,4.141636
4780.748,4.111115
4786.533,4.09431
4792.319,4.080427
4798.104,4.058479
4803.89,4.030462
4809.675,3.989622
4815.46,3.934902
4821.246,3.891014
4827.032,3.853058
4832.817,3.818005
4838.603,3.774549
4844.388,3.722219
4850.174,3.663538
4855.959,3.611034
4861.745,3.568618
4867.53,3.541846
4873.315,3.541455
4879.101,3.566794
4884.887,3.58987
4890.672,3.614886
4896.458,3.637466
4902.243,3.650707
4908.028,3.668468
4913.814,3.672616
4919.6,3.66722
4925.385,3.662432
4931.17,3.662108
4936.956,3.664424
4942.742,3.652196
4948.527,3.606556
4954.313,3.517252
4960.098,3.399885
4965.883,3.375517
4971.669,3.42789
4977.455,3.460854
4983.24,3.497418
4989.025,3.54603
4994.811,3.601498
5000.597,3.679086
5006.382,3.730638
5012.167,3.746967
5017.953,3.745567
5023.738,3.767468
5029.524,3.793375
5035.31,3.807579
5041.095,3.813727
5046.88,3.813755
5052.666,3.795088
5058.451,3.756617
5064.237,3.738971
5070.022,3.745929
5075.808,3.747298
5081.593,3.742348
5087.379,3.725917
5093.165,3.707958
5098.95,3.698042
5104.735,3.713889
5110.521,3.731657
5116.307,3.747654
5122.092,3.762365
5127.877,3.778324
5133.663,3.790373
5139.448,3.777528
5145.234,3.756905
5151.02,3.728206
5156.805,3.706371
5162.59,3.703646
5168.376,3.707647
5174.161,3.706779
5179.947,3.70235
5185.732,3.699309
5191.518,3.694602
5197.303,3.714082
5203.089,3.718926
5208.874,3.736089
5214.66,3.710321
5220.445,3.720291
5226.231,3.745563
5232.016,3.747623
5237.802,3.752684
5243.587,3.783094
5249.373,3.798457
5255.158,3.816339
5260.944,3.813282
5266.729,3.808871
5272.515,3.791138
5278.3,3.792026
5284.086,3.80437
5289.871,3.816732
5295.657,3.782708
5301.442,3.757694
5307.228,3.736266
5313.013,3.753736
5318.799,3.843519
5324.584,3.883352
5330.37,3.886078
5336.155,3.869123
5341.94,3.811724
5347.726,3.74815
5353.512,3.686568
5359.297,3.615426
5365.083,3.574622
5370.868,3.515678
5376.654,3.50973
5382.439,3.484209
5388.225,3.465886
5394.01,3.44178
5399.796,3.377163
5405.581,3.336099
5411.367,3.275914
5417.152,3.171229
5422.938,3.139147
5428.723,3.130718
5434.509,3.115433
5440.294,3.113248
5446.08,3.102065
5451.865,3.074752
5457.65,3.066672
5463.436,3.055557
5469.222,3.039403
5475.007,3.021953
5480.792,2.969413
5486.578,2.934104
5492.363,2.931309
5498.149,2.931976
5503.935,2.948745
5509.72,2.969765
5515.505,2.987989
5521.291,2.993834
5527.077,2.983568
5532.862,2.983958
5538.647,2.97364
5544.433,2.961703
5550.219,2.952397
5556.004,2.957426
5561.79,2.975637
5567.575,3.015665
5573.36,3.071816
5579.146,3.133964
5584.932,3.186127
5590.717,3.195541
5596.502,3.175817
5602.288,3.136638
5608.073,3.085206
5613.859,3.02907
5619.645,2.981908
5625.43,2.928039
5631.215,2.887115
5637.001,2.837109
5642.786,2.768948
5648.572,2.638151
5654.357,2.465482
5660.143,2.333926
5665.929,2.323184
5671.714,2.395003
5677.5,2.496331
5683.285,2.571502
5689.07,2.639509
5694.856,2.714121
5700.642,2.804737
5706.427,2.899932
5712.212,2.947913
5717.998,2.93417
5723.783,2.809619
5729.569,2.602968
5735.354,2.551892
5741.14,2.519225
5746.925,2.437637
5752.711,2.352739
5758.496,2.276123
5764.282,2.204929
5770.067,2.150586
5775.853,2.14047
5781.638,2.162407
5787.424,2.202233
5793.209,2.24422
5798.995,2.282848
5804.78,2.325556
5810.566,2.373053
5816.352,2.422749
5822.137,2.479561
5827.922,2.554307
5833.708,2.637399
5839.493,2.728498
5845.279,2.852705
5851.064,3.037076
5856.85,3.2895
5862.635,3.629441
5868.421,4.003299
5874.206,4.365389
5879.992,4.690944
5885.777,4.960318
5891.563,5.183131
5897.348,5.373812
5903.134,5.554009
5908.919,5.725267
5914.705,5.885438
5920.49,6.028072
5926.276,6.175113
5932.061,6.319363
5937.847,6.461905
5943.632,6.595012
5949.418,6.723691
5955.203,6.881078
5960.989,7.080894
5966.774,7.326175
5972.56,7.565825
5978.345,7.792131
5984.131,7.996875
5989.916,8.190615
5995.702,8.365714
6001.487,8.528139
6007.272,8.677567
6013.058,8.83038
6018.844,8.985109
6024.629,9.140746
6030.415,9.271711
6036.2,9.390228
6041.985,9.488196
6047.771,9.58561
6053.557,9.670678
6059.342,9.755109
6065.128,9.81714
6070.913,9.879769
6076.698,9.946824
6082.484,9.999836
6088.27,10.05213
6094.055,10.05069
6099.841,9.952882
6105.626,9.846354
6111.412,9.878015
6117.197,10.01037
6122.982,10.12286
6128.768,10.2123
6134.554,10.29856
6140.339,10.38081
6146.125,10.44283
6151.91,10.49689
6157.695,10.54818
6163.481,10.5977
6169.267,10.65035
6175.052,10.70126
6180.837,10.73077
6186.623,10.75608
6192.408,10.77927
6198.194,10.80815
6203.979,10.82368
6209.765,10.85707
6215.551,10.87857
6221.336,10.90486
6227.121,10.93066
6232.907,10.94641
6238.692,10.95527
6244.478,10.96786
6250.264,10.97151
6256.049,10.97463
6261.834,10.99068
6267.62,10.99688
6273.405,11.00709
6279.191,11.01338
6284.977,11.02548
6290.762,11.02746
6296.547,11.03262
6302.333,11.0499
6308.118,11.04934
6313.904,11.05541
6319.689,11.03984
6325.475,11.02701
6331.26,11.00296
6337.046,10.98337
6342.831,10.9504
6348.617,10.92487
6354.402,10.88449
6360.188,10.85251
6365.974,10.7933
6371.759,10.71443
6377.544,10.6534
6383.33,10.62594
6389.115,10.61334
6394.901,10.59611
6400.687,10.54889
6406.472,10.4679
6412.257,10.36812
6418.043,10.29389
6423.828,10.25538
6429.614,10.24025
6435.399,10.19492
6441.185,10.12039
6446.97,10.00543
6452.756,9.882298
6458.541,9.753872
6464.327,9.55765
6470.112,9.240124
6475.897,8.845695
6481.684,8.597561
6487.469,8.626806
6493.254,8.787703
6499.04,8.946571
6504.825,9.093238
6510.61,9.205626
6516.396,9.295922
6522.182,9.369464
6527.967,9.430567
6533.753,9.483804
6539.538,9.525607
6545.324,9.56828
6551.109,9.606819
6556.895,9.642319
6562.68,9.682841
6568.466,9.734279
6574.251,9.781332
6580.037,9.820631
6585.822,9.847268
6591.607,9.863375
6597.393,9.873859
6603.179,9.875224
6608.964,9.878596
6614.75,9.884208
6620.535,9.872503
6626.32,9.861515
6632.106,9.84609
6637.892,9.829848
6643.677,9.804444
6649.463,9.780273
6655.248,9.745955
6661.034,9.711215
6666.819,9.672989
6672.604,9.636069
6678.39,9.591331
6684.176,9.551707
6689.961,9.503217
6695.747,9.447109
6701.532,9.385139
6707.317,9.316432
6713.103,9.244573
6718.889,9.177015
6724.674,9.105973
6730.459,9.052584
6736.245,8.994213
6742.03,8.930329
6747.816,8.877226
6753.602,8.817838
6759.387,8.76096
6765.173,8.691934
6770.958,8.624136
6776.743,8.532503
6782.529,8.419991
6788.314,8.29355
6794.1,8.160619
6799.886,8.023693
6805.671,7.888904
6811.457,7.77221
6817.242,7.655657
6823.027,7.504818
6828.813,7.343999
6834.599,7.218765
6840.384,7.154541
6846.169,7.107775
6851.955,7.053157
6857.74,6.989499
6863.526,6.935548
6869.312,6.87405
6875.097,6.813954
6880.882,6.726448
6886.668,6.644882
6892.453,6.54963
6898.239,6.469121
6904.024,6.420774
6909.81,6.375938
6915.596,6.309389
6921.381,6.224795
6927.166,6.127072
6932.952,6.004292
6938.737,5.867241
6944.523,5.728103
6950.309,5.646923
6956.094,5.630345
6961.879,5.648468
6967.665,5.66107
6973.45,5.679985
6979.236,5.672581
6985.021,5.661978
6990.807,5.616206
6996.592,5.57074
7002.378,5.501392
7008.163,5.424174
7013.949,5.359889
7019.734,5.304453
7025.52,5.298343
7031.305,5.327393
7037.091,5.373343
7042.876,5.380761
7048.662,5.313335
7054.447,5.147286
7060.232,4.977745
7066.019,4.965203
7071.804,5.20253
7077.589,5.488047
7083.375,5.7013
7089.16,5.798954
7094.946,5.871155
7100.731,5.948752
7106.517,6.102681
7112.302,6.232714
7118.088,6.405931
7123.873,6.490995
7129.659,6.528399
7135.444,6.479515
7141.229,6.367815
7147.015,6.212459
7152.801,5.956446
7158.586,5.517525
7164.372,4.896715
7170.157,4.43831
7175.942,4.468914
7181.729,4.891672
7187.514,5.334041
7193.299,5.763315
7199.085,6.13133
7204.87,6.52717
7210.655,6.808683
7216.441,7.061535
7222.227,7.340501
7228.012,7.671767
7233.798,8.020213
7239.583,8.258395
7245.369,8.540855
7251.154,8.807903
7256.939,9.066822
7262.725,9.339842
7268.511,9.577553
7274.296,9.841017
7280.082,10.06595
7285.867,10.29999
7291.652,10.51276
7297.438,10.72907
7303.224,10.93982
7309.009,11.17982
7314.794,11.3802
7320.58,11.55683
7326.365,11.74837
7332.151,11.86737
7337.937,12.00093
7343.722,12.11694
7349.508,12.19177
7355.293,12.27428
7361.079,12.32851
7366.864,12.39761
7372.649,12.42425
7378.435,12.48614
7384.221,12.52391
7390.006,12.56213
7395.792,12.59789
7401.577,12.62206
7407.362,12.64714
7413.148,12.67003
7418.934,12.70308
7424.719,12.70658
7430.504,12.71804
7436.29,12.74027
7442.075,12.7611
7447.861,12.77448
7453.646,12.8035
7459.432,12.8156
7465.218,12.83332
7471.003,12.84706
7476.788,12.85365
7482.574,12.85147
7488.359,12.84784
7494.145,12.83638
7499.931,12.83404
7505.716,12.82153
7511.501,12.8205
7517.287,12.817
7523.072,12.81568
7528.858,12.80306
7534.644,12.797
7540.429,12.77614
7546.214,12.7716
7552.0,12.74856
7557.785,12.73198
7563.571,12.71142
7569.356,12.69362
7575.142,12.6822
7580.927,12.66386
7586.713,12.643
7592.498,12.62117
7598.284,12.60581
7604.069,12.5684
7609.854,12.54243
7615.641,12.51064
7621.426,12.4681
7627.211,12.43432
7632.997,12.39609
7638.782,12.35759
7644.568,12.32318
7650.354,12.29317
7656.139,12.25421
7661.924,12.23546
7667.71,12.20225
7673.495,12.17153
7679.281,12.15216
7685.066,12.13046
7690.852,12.11119
7696.637,12.09678
7702.423,12.08051
7708.208,12.05763
7713.994,12.03279
7719.779,12.00556
7725.564,11.99485
7731.35,11.96293
7737.136,11.95504
7742.921,11.94028
7748.707,11.91477
7754.492,11.88952
7760.277,11.84473
7766.063,11.82514
7771.849,11.78686
7777.634,11.76645
7783.42,11.7601
7789.205,11.75602
7794.991,11.74634
7800.776,11.71791
7806.562,11.68197
7812.347,11.6636
7818.133,11.64098
7823.918,11.6106
7829.704,11.58656
7835.489,11.54896
7841.274,11.52462
7847.06,11.47808
7852.846,11.44351
7858.631,11.38901
7864.417,11.3468
7870.202,11.29697
7875.987,11.24667
7881.773,11.18588
7887.559,11.12947
7893.344,11.07223
7899.13,10.99237
7904.915,10.94427
7910.7,10.89203
7916.486,10.829
7922.271,10.75191
7928.057,10.69496
7933.843,10.61438
7939.628,10.54485
7945.414,10.45788
7951.199,10.37172
7956.984,10.28398
7962.77,10.19007
7968.556,10.09429
7974.341,9.994042
7980.126,9.902617
7985.912,9.798592
7991.697,9.697426
7997.483,9.593177
8003.269,9.48673
8009.054,9.3716
8014.839,9.246807
8020.625,9.132979
8026.41,9.005039
8032.196,8.868291
8037.981,8.732111
8043.767,8.593721
8049.553,8.456435
8055.338,8.305146
8061.124,8.156638
8066.909,7.999392
8072.694,7.853938
8078.48,7.699642
8084.266,7.535373
8090.051,7.374809
8095.836,7.211476
8101.622,7.044791
8107.407,6.868174
8113.192,6.685772
8118.979,6.496531
8124.764,6.309103
8130.55,6.116497
8136.335,5.913827
8142.12,5.747884
8147.906,5.536817
8153.691,5.358372
8159.477,5.153243
8165.263,4.951764
8171.048,4.758926
8176.833,4.577015
8182.619,4.404747
8188.404,4.265861
8194.189,4.124317
8199.976,4.025563
8205.761,3.946835
8211.546,3.888175
8217.332,3.862089
8223.117,3.843414
8228.902,3.859246
8234.688,3.873195
8240.474,3.908825
8246.259,3.926935
8252.045,3.961056
8257.83,3.992257
8263.616,4.058522
8269.401,4.127072
8275.187,4.228608
8280.973,4.311986
8286.758,4.445121
8292.543,4.57844
8298.329,4.710177
8304.114,4.85611
8309.899,4.988719
8315.686,5.122419
8321.471,5.266106
8327.256,5.379328
8333.042,5.532673
8338.827,5.682175
8344.612,5.847919
8350.398,6.041214
8356.184,6.234811
8361.969,6.428484
8367.755,6.628624
8373.54,6.80855
8379.325,6.984622
8385.111,7.130113
8390.896,7.256231
8396.683,7.339467
8402.468,7.390886
8408.253,7.384151
8414.039,7.344414
8419.824,7.295547
8425.609,7.30781
8431.396,7.367631
8437.181,7.50209
8442.966,7.687348
8448.752,7.880553
8454.537,8.087327
8460.322,8.251646
8466.108,8.376695
8471.894,8.532468
8477.679,8.689909
8483.465,8.870691
8489.25,9.049436
8495.035,9.199177
8500.821,9.314004
8506.606,9.379321
8512.392,9.404464
8518.178,9.446328
8523.963,9.519983
8529.748,9.592749
8535.534,9.596938
8541.319,9.544316
8547.105,9.40058
8552.891,9.206289
8558.676,8.983221
8564.462,8.803457
8570.247,8.912912
8576.032,9.15566
8581.818,9.425275
8587.604,9.722752
8593.389,10.04695
8599.175,10.38763
8604.96,10.71287
8610.745,11.02074
8616.531,11.28031
8622.316,11.53606
8628.102,11.76591
8633.888,11.94176
8639.673,12.12599
8645.458,12.28553
8651.244,12.42141
8657.029,12.55684
8662.814,12.68472
8668.601,12.78918
8674.386,12.9104
8680.172,13.00639
8685.957,13.11454
8691.742,13.23105
8697.528,13.36816
8703.313,13.46495
8709.099,13.58244
8714.885,13.67826
8720.67,13.80865
8726.455,13.93419
8732.241,14.0621
8738.026,14.1785
8743.812,14.27755
8749.598,14.39194
8755.383,14.49178
8761.168,14.58135
8766.954,14.67325
8772.739,14.75786
8778.524,14.81797
8784.311,14.88176
8790.096,14.93291
8795.881,14.97799
8801.667,15.02978
8807.452,15.05957
8813.237,15.09989
8819.023,15.121
8824.809,15.1529
8830.595,15.1616
8836.38,15.18888
8842.165,15.21276
8847.951,15.20848
8853.736,15.24034
8859.521,15.2335
8865.308,15.25889
8871.093,15.26693
8876.878,15.2595
8882.664,15.26608
8888.449,15.25492
8894.234,15.28068
8900.021,15.2724
8905.806,15.25915
8911.591,15.24743
8917.377,15.23205
8923.162,15.23488
8928.947,15.22557
8934.733,15.21215
8940.519,15.21188
8946.304,15.18717
8952.09,15.20683
8957.875,15.19299
8963.661,15.21429
8969.446,15.22264
8975.231,15.22319
8981.018,15.26022
8986.803,15.23207
8992.588,15.26086
8998.374,15.2737
9004.159,15.29378
9009.944,15.29575
9015.73,15.3141
9021.516,15.31413
9027.301,15.34557
9033.087,15.34785
9038.872,15.34909
9044.657,15.37182
9050.443,15.38615
9056.229,15.38028
9062.014,15.37636
9067.8,15.40536
9073.585,15.41572
9079.37,15.40976
9085.156,15.43542
9090.941,15.40916
9096.727,15.43719
9102.513,15.42422
9108.298,15.43804
9114.084,15.43513
9119.869,15.43793
9125.654,15.43517
9131.44,15.44025
9137.226,15.44682
9143.011,15.40909
9148.797,15.39431
9154.582,15.3975
9160.367,15.39861
9166.153,15.36888
9171.938,15.36921
9177.724,15.36858
9183.51,15.35843
9189.295,15.3416
9195.08,15.34546
9200.866,15.3134
9206.651,15.30328
9212.437,15.31855
9218.223,15.29886
9224.008,15.28682
9229.793,15.28569
9235.579,15.275
9241.364,15.27601
9247.15,15.27899
9252.936,15.26211
9258.721,15.2791
9264.507,15.23162
9270.292,15.236
9276.077,15.21815
9281.863,15.20986
9287.648,15.20185
9293.434,15.2223
9299.22,15.21461
9305.005,15.23038
9310.79,15.21391
9316.576,15.22491
9322.361,15.22836
9328.146,15.23429
9333.933,15.22912
9339.718,15.22622
9345.503,15.22267
9351.289,15.22081
9357.074,15.1802
9362.859,15.19079
9368.646,15.18164
9374.431,15.15435
9380.217,15.13048
9386.002,15.11551
9391.787,15.08144
9397.573,15.06933
9403.358,15.04475
9409.144,15.01181
9414.93,15.01233
9420.715,14.96153
9426.5,14.9532
9432.286,14.91443
9438.071,14.90776
9443.856,14.88
9449.643,14.8606
9455.428,14.81748
9461.213,14.77699
9466.999,14.75856
9472.784,14.72994
9478.569,14.6986
9484.355,14.69337
9490.141,14.67096
9495.926,14.6621
9501.712,14.64368
9507.497,14.65906
9513.282,14.63135
9519.068,14.60096
9524.854,14.57064
9530.64,14.56614
9536.425,14.55727
9542.21,14.52705
9547.996,14.49534
9553.781,14.45998
9559.566,14.46428
9565.353,14.42118
9571.138,14.38886
9576.923,14.40806
9582.709,14.37564
9588.494,14.34393
9594.279,14.32593
9600.065,14.35591
9605.851,14.36618
9611.636,14.409
9617.422,14.4299
9623.207,14.46376
9628.992,14.53457
9634.778,14.52967
9640.563,14.57308
9646.349,14.58706
9652.135,14.65962
9657.92,14.70899
9663.706,14.76656
9669.491,14.82568
9675.276,14.87897
9681.063,14.90569
9686.848,14.91354
9692.633,14.98951
9698.419,15.05861
9704.204,15.0644
9709.989,15.13596
9715.775,15.18755
9721.561,15.20404
9727.346,15.267
9733.132,15.33685
9738.917,15.38109
9744.702,15.40276
9750.488,15.43041
9756.273,15.47376
9762.059,15.50986
9767.845,15.52004
9773.63,15.54473
9779.415,15.56883
9785.201,15.57351
9790.986,15.54042
9796.771,15.55754
9802.558,15.54361
9808.343,15.54823
9814.129,15.56036
9819.914,15.56427
9825.699,15.59255
9831.485,15.58229
9837.271,15.60282
9843.056,15.66795
9848.842,15.73161
9854.627,15.75378
9860.412,15.80813
9866.198,15.85536
9871.983,15.92997
9877.769,15.97292
9883.555,16.01184
9889.34,16.07266
9895.125,16.1032
9900.911,16.15644
9906.696,16.20777
9912.481,16.23349
9918.268,16.25658
9924.053,16.32143
9929.838,16.31888
9935.624,16.38693
9941.409,16.42512
9947.195,16.45267
9952.98,16.47758
9958.766,16.48038
9964.552,16.57041
9970.337,16.56491
9976.122,16.58194
9981.908,16.61507
9987.693,16.65386
9993.479,16.65219
9999.265,16.65436
10005.05,16.70702
10010.83,16.70049
10016.62,16.73913
10022.41,16.76066
10028.19,16.77605
10033.98,16.79716
10039.76,16.83421
10045.55,16.84534
10051.33,16.891
10057.12,16.90093
10062.9,16.93684
10068.69,16.964
10074.48,16.88973
10080.26,16.94863
10086.05,16.9314
10091.83,16.97998
10097.62,16.98977
10103.4,16.98299
10109.19,16.99266
10114.97,16.9959
10120.76,17.01675
10126.54,17.06176
10132.33,17.05
10138.12,17.08254
10143.9,17.08795
10149.69,17.0744
10155.47,17.09908
10161.26,17.07515
10167.04,17.0903
10172.83,17.07504
10178.61,17.1226
10184.4,17.09496
10190.19,17.07574
10195.97,17.10212
10201.76,17.09053
10207.54,17.10041
10213.33,17.09934
10219.11,17.11547
10224.9,17.12479
10230.68,17.1204
10236.47,17.11559
10242.25,17.11445
10248.04,17.11018
10253.83,17.1265
10259.61,17.11892
10265.4,17.10706
10271.18,17.09837
10276.97,17.06016
10282.75,17.06692
10288.54,17.09528
10294.32,17.06485
10300.11,17.10852
10305.9,17.08866
10311.68,17.08507
10317.47,17.0838
10323.25,17.09883
10329.04,17.06384
10334.82,17.02684
10340.61,17.02933
10346.39,17.08476
10352.18,17.03971
10357.96,17.03118
10363.75,17.0635
10369.54,16.98737
10375.32,17.03535
10381.11,17.03903
10386.89,17.01669
10392.68,17.03654
10398.46,17.01623
10404.25,17.01114
10410.03,16.97294
10415.82,16.97695
10421.61,16.95574
10427.39,16.94821
10433.18,16.89301
10438.96,16.94147
10444.75,16.85705
10450.53,16.82452
10456.32,16.89068
10462.1,16.82307
10467.89,16.84306
10473.67,16.8136
10479.46,16.77319
10485.25,16.75038
10491.03,16.68521
10496.82,16.61156
10502.6,16.62598
10508.39,16.59449
10514.17,16.57358
10519.96,16.4992
10525.74,16.40738
10531.53,16.32831
10537.32,16.30532
10543.1,16.31897
10548.89,16.20662
10554.67,16.18113
10560.46,16.09074
10566.24,15.98171
10572.03,15.88527
10577.81,15.77655
10583.6,15.68352
10589.38,15.5976
10595.17,15.52788
10600.96,15.39487
10606.74,15.2995
10612.53,15.1665
10618.31,15.03886
10624.1,14.9609
10629.88,14.73884
10635.67,14.65419
10641.45,14.47532
10647.24,14.3731
10653.03,14.17478
10658.81,14.02314
10664.6,13.89085
10670.38,13.75118
10676.17,13.62552
10681.95,13.55185
10687.74,13.38024
10693.52,13.35614
10699.31,13.27902
10705.09,13.17975
10710.88,13.12143
10716.67,13.14631
10722.45,13.19866
10728.24,13.14811
10734.02,13.18552
10739.81,13.22056
10745.59,13.25438
10751.38,13.31352
10757.16,13.35648
10762.95,13.4176
10768.74,13.50552
10774.52,13.55488
10780.31,13.70239
10786.09,13.76512
10791.88,13.90053
10797.66,13.95695
10803.45,14.14155
10809.23,14.15839
10815.02,14.30382
10820.8,14.39424
10826.59,14.43246
10832.38,14.6718
10838.16,14.80628
10843.95,14.91783
10849.73,15.00548
10855.52,15.08007
10861.3,15.2369
10867.09,15.31249
10872.87,15.41412
10878.66,15.53405
10884.45,15.6206
10890.23,15.69429
10896.02,15.80236
10901.8,15.96409
10907.59,15.97181
10913.37,16.13188
10919.16,16.21042
10924.94,16.30075
10930.73,16.40306
10936.51,16.45434
10942.3,16.57216
10948.09,16.57778
10953.87,16.75642
10959.66,16.79454
10965.44,16.84868
10971.23,16.86941
10977.01,17.00204
10982.8,17.03469
10988.58,17.06824
10994.37,17.19485
11000.16,17.21376
11005.94,17.22577
11011.73,17.21973
11017.51,17.3649
11023.3,17.41464
11029.08,17.39951
11034.87,17.43257
11040.65,17.47244
11046.44,17.46654
11052.22,17.55142
11058.01,17.53422
11063.79,17.55695
11069.58,17.59739
11075.37,17.61263
11081.15,17.63676
11086.94,17.66709
11092.72,17.63526
11098.51,17.71475
11104.29,17.76217
11110.08,17.68144
11115.87,17.67689
11121.65,17.72178
11127.44,17.61994
11133.22,17.79918
11139.01,17.73854
11144.79,17.87671
11150.58,17.84819
11156.36,17.82291
11162.15,17.88269
11167.93,17.87296
11173.72,17.95844
11179.5,17.9226
11185.29,17.98191
11191.08,18.02451
11196.86,18.05061
11202.65,18.06936
11208.43,18.14717
11214.22,18.23593
11220.0,18.18999
11225.79,18.24871
11231.58,18.26703
11237.36,18.34681
11243.15,18.30892
11248.93,18.34782
11254.72,18.44684
11260.5,18.51704
11266.29,18.41951
11272.07,18.50838
11277.86,18.47559
11283.64,18.5384
11289.43,18.50519
11295.21,18.60406
11301.0,18.60314
11306.79,18.56591
11312.57,18.7092
11318.36,18.66935
11324.14,18.69874
11329.93,18.79382
11335.71,18.71859
11341.5,18.75004
11347.28,18.73842
11353.07,18.73749
11358.86,18.68923
11364.64,18.82821
11370.43,18.81436
11376.21,18.81621
11382.0,18.80863
11387.78,18.8682
11393.57,18.90379
11399.35,18.8552
11405.14,18.9085
11410.92,18.91606
11416.71,18.73799
11422.5,18.9712
11428.28,18.94922
11434.07,18.98383
11439.85,19.12378
11445.64,19.02747
11451.42,19.08466
11457.21,19.05467
11462.99,19.06749
11468.78,19.00128
11474.57,19.13614
11480.35,19.16784
11486.14,19.17186
11491.92,19.15464
11497.71,19.1494
11503.49,19.1807
11509.28,19.20002
11515.06,19.20282
11520.85,19.31739
11526.63,19.19308
11532.42,19.32925
11538.21,19.32078
11543.99,19.40523
11549.78,19.27458
11555.56,19.2902
11561.35,19.34367
11567.13,19.40329
11572.92,19.30595
11578.7,19.50155
11584.49,19.21467
11590.28,19.4179
11596.06,19.33502
11601.85,19.42685
11607.63,19.45753
11613.42,19.33868
11619.2,19.50124
11624.99,19.49877
11630.77,19.45972
11636.56,19.47481
11642.34,19.51127
11648.13,19.47332
11653.92,19.49211
11659.7,19.42719
11665.49,19.47581
11671.27,19.59524
11677.06,19.50523
11682.84,19.41471
11688.63,19.40578
11694.41,19.457
11700.2,19.44776
11705.99,19.41718
11711.77,19.54688
11717.56,19.43206
11723.34,19.37623
11729.13,19.37301
11734.91,19.53731
11740.7,19.36245
11746.48,19.43508
11752.27,19.27317
11758.05,19.43717
11763.84,19.3535
11769.63,19.42578
11775.41,19.34585
11781.2,19.50478
11786.98,19.39359
11792.77,19.41159
11798.55,19.35114
11804.34,19.23242
11810.12,19.3089
11815.91,19.43193
11821.7,19.36296
11827.48,19.3924
11833.27,19.25779
11839.05,19.48124
11844.84,19.2351
11850.62,19.36593
11856.41,19.31614
11862.19,19.35391
11867.98,19.20206
11873.76,19.3642
11879.55,19.4751
11885.34,19.26017
11891.12,19.30084
11896.91,19.32242
11902.69,19.33319
11908.48,19.26272
11914.26,19.23174
11920.05,19.39292
11925.83,19.15925
11931.62,19.36009
11937.41,19.21081
11943.19,19.2536
11948.98,19.1897
11954.76,19.13986
11960.55,19.04166
11966.33,19.2483
11972.12,19.16844
11977.9,19.05127
11983.69,18.98556
11989.47,19.26026
11995.26,19.11407
11999.12,19.0583