File: Data/NIR/S0048HDPE_4.csv
Wavenumber,Intensity
3999.706,3.349011
4005.491,3.338887
4011.277,3.335147
4017.062,3.307272
4022.848,3.307028
4028.633,3.313596
4034.419,3.318805
4040.204,3.319426
4045.99,3.322555
4051.775,3.31775
4057.561,3.321522
4063.346,3.324804
4069.132,3.320325
4074.917,3.321444
4080.703,3.318665
4086.488,3.30642
4092.274,3.305194
4098.059,3.300868
4103.845,3.309298
4109.63,3.308027
4115.416,3.310629
4121.201,3.308321
4126.987,3.31235
4132.772,3.316109
4138.558,3.312124
4144.343,3.311222
4150.129,3.312847
4155.914,3.317747
4161.7,3.319358
4167.485,3.326257
4173.271,3.331283
4179.056,3.334415
4184.842,3.338387
4190.627,3.339584
4196.413,3.352951
4202.198,3.362883
4207.983,3.372028
4213.769,3.378763
4219.555,3.383504
4225.34,3.390286
4231.125,3.407122
4236.911,3.414638
4242.697,3.40257
4248.482,3.386725
4254.268,3.391629
4260.053,3.412439
4265.838,3.437979
4271.624,3.448515
4277.41,3.46273
4283.195,3.471534
4288.98,3.48192
4294.766,3.496429
4300.552,3.496028
4306.337,3.474181
4312.123,3.438905
4317.908,3.408232
4323.693,3.403447
4329.479,3.413531
4335.265,3.421799
4341.05,3.435447
4346.835,3.447589
4352.621,3.484148
4358.407,3.50972
4364.192,3.526374
4369.978,3.550334
4375.763,3.579137
4381.548,3.610984
4387.334,3.641482
4393.12,3.691063
4398.905,3.741889
4404.69,3.803249
4410.476,3.87134
4416.262,3.924567
4422.047,3.979367
4427.833,4.025636
4433.618,4.052711
4439.403,4.096223
4445.189,4.140504
4450.975,4.197865
4456.76,4.259456
4462.545,4.316649
4468.331,4.361846
4474.116,4.400944
4479.902,4.451564
4485.688,4.51321
4491.473,4.573326
4497.258,4.631163
4503.044,4.692001
4508.83,4.755447
4514.615,4.819967
4520.4,4.880169
4526.186,4.934388
4531.971,4.991629
4537.757,5.056357
4543.542,5.117774
4549.328,5.183792
4555.113,5.253801
4560.899,5.330066
4566.685,5.395965
4572.47,5.453906
4578.255,5.498859
4584.041,5.532412
4589.826,5.561301
4595.612,5.584321
4601.397,5.597423
4607.183,5.618165
4612.968,5.64517
4618.754,5.669068
4624.539,5.698922
4630.325,5.722006
4636.11,5.733091
4641.896,5.739892
4647.681,5.73396
4653.467,5.709082
4659.252,5.647317
4665.038,5.564464
4670.823,5.570778
4676.609,5.669906
4682.394,5.759902
4688.18,5.807714
4693.965,5.822759
4699.751,5.823319
4705.536,5.811725
4711.322,5.780286
4717.107,5.746626
4722.893,5.71261
4728.678,5.680909
4734.464,5.668947
4740.249,5.662349
4746.035,5.641665
4751.82,5.615572
4757.605,5.590351
4763.391,5.547563
4769.177,5.491683
4774.962,5.424566
4780.748,5.388818
4786.533,5.378535
4792.319,5.363383
4798.104,5.341602
4803.89,5.309379
4809.675,5.269412
4815.46,5.217006
4821.246,5.171376
4827.032,5.135939
4832.817,5.104943
4838.603,5.067099
4844.388,5.013673
4850.174,4.957887
4855.959,4.910542
4861.745,4.873569
4867.53,4.84651
4873.315,4.846262
4879.101,4.865041
4884.887,4.886086
4890.672,4.905336
4896.458,4.923992
4902.243,4.936781
4908.028,4.950808
4913.814,4.958238
4919.6,4.951571
4925.385,4.945208
4931.17,4.94236
4936.956,4.942344
4942.742,4.930697
4948.527,4.892381
4954.313,4.809494
4960.098,4.706644
4965.883,4.681867
4971.669,4.730803
4977.455,4.755345
4983.24,4.783394
4989.025,4.826142
4994.811,4.875947
5000.597,4.946051
5006.382,4.984197
5012.167,5.000875
5017.953,4.995065
5023.738,5.01255
5029.524,5.040117
5035.31,5.04973
5041.095,5.055792
5046.88,5.051477
5052.666,5.03337
5058.451,4.99888
5064.237,4.984623
5070.022,4.988621
5075.808,4.990355
5081.593,4.982676
5087.379,4.969465
5093.165,4.954381
5098.95,4.947773
5104.735,4.957341
5110.521,4.975368
5116.307,4.986394
5122.092,4.995126
5127.877,5.006457
5133.663,5.015407
5139.448,5.004507
5145.234,4.98237
5151.02,4.950667
5156.805,4.929785
5162.59,4.928245
5168.376,4.931822
5174.161,4.928323
5179.947,4.918362
5185.732,4.913006
5191.518,4.914792
5197.303,4.92952
5203.089,4.939336
5208.874,4.934212
5214.66,4.923009
5220.445,4.928275
5226.231,4.938886
5232.016,4.944393
5237.802,4.955163
5243.587,4.985222
5249.373,4.976398
5255.158,4.996882
5260.944,5.006628
5266.729,4.992719
5272.515,4.980282
5278.3,4.984104
5284.086,4.994776
5289.871,4.998366
5295.657,4.965409
5301.442,4.940475
5307.228,4.912426
5313.013,4.932258
5318.799,5.015865
5324.584,5.062044
5330.37,5.059703
5336.155,5.053548
5341.94,5.005311
5347.726,4.927736
5353.512,4.874534
5359.297,4.815031
5365.083,4.775065
5370.868,4.729955
5376.654,4.715523
5382.439,4.708706
5388.225,4.679829
5394.01,4.66122
5399.796,4.612202
5405.581,4.574102
5411.367,4.529456
5417.152,4.436074
5422.938,4.41185
5428.723,4.403723
5434.509,4.390735
5440.294,4.400159
5446.08,4.37661
5451.865,4.349221
5457.65,4.351467
5463.436,4.34301
5469.222,4.326819
5475.007,4.314594
5480.792,4.272818
5486.578,4.251542
5492.363,4.243221
5498.149,4.249499
5503.935,4.262813
5509.72,4.273415
5515.505,4.28942
5521.291,4.2926
5527.077,4.286166
5532.862,4.280427
5538.647,4.273591
5544.433,4.26566
5550.219,4.254939
5556.004,4.252827
5561.79,4.2709
5567.575,4.299675
5573.36,4.340788
5579.146,4.390297
5584.932,4.431169
5590.717,4.438498
5596.502,4.424776
5602.288,4.395833
5608.073,4.352063
5613.859,4.30453
5619.645,4.268624
5625.43,4.225961
5631.215,4.19198
5637.001,4.154993
5642.786,4.106298
5648.572,4.017979
5654.357,3.900836
5660.143,3.811861
5665.929,3.803231
5671.714,3.843817
5677.5,3.901311
5683.285,3.953449
5689.07,3.995332
5694.856,4.046854
5700.642,4.111379
5706.427,4.184761
5712.212,4.212142
5717.998,4.19604
5723.783,4.093222
5729.569,3.948604
5735.354,3.921574
5741.14,3.904013
5746.925,3.858992
5752.711,3.805035
5758.496,3.755973
5764.282,3.712928
5770.067,3.671977
5775.853,3.662388
5781.638,3.680339
5787.424,3.708906
5793.209,3.734462
5798.995,3.760233
5804.78,3.783278
5810.566,3.814436
5816.352,3.84578
5822.137,3.87902
5827.922,3.931196
5833.708,3.985573
5839.493,4.045729
5845.279,4.1365
5851.064,4.272462
5856.85,4.464751
5862.635,4.736866
5868.421,5.038013
5874.206,5.338364
5879.992,5.609133
5885.777,5.841774
5891.563,6.032011
5897.348,6.195421
5903.134,6.357559
5908.919,6.504161
5914.705,6.652323
5920.49,6.792944
5926.276,6.938203
5932.061,7.084169
5937.847,7.227752
5943.632,7.360122
5949.418,7.487624
5955.203,7.639355
5960.989,7.83857
5966.774,8.078004
5972.56,8.317909
5978.345,8.543816
5984.131,8.749249
5989.916,8.945792
5995.702,9.120609
6001.487,9.285232
6007.272,9.442229
6013.058,9.59889
6018.844,9.758835
6024.629,9.912053
6030.415,10.04975
6036.2,10.16909
6041.985,10.26992
6047.771,10.36916
6053.557,10.45611
6059.342,10.54338
6065.128,10.60758
6070.913,10.67077
6076.698,10.73565
6082.484,10.78987
6088.27,10.84228
6094.055,10.85034
6099.841,10.79575
6105.626,10.72425
6111.412,10.75299
6117.197,10.8608
6122.982,10.95373
6128.768,11.02756
6134.554,11.09956
6140.339,11.16234
6146.125,11.21526
6151.91,11.26227
6157.695,11.30772
6163.481,11.3475
6169.267,11.39965
6175.052,11.45184
6180.837,11.47609
6186.623,11.50203
6192.408,11.5217
6198.194,11.54574
6203.979,11.56598
6209.765,11.59314
6215.551,11.61104
6221.336,11.64071
6227.121,11.66523
6232.907,11.67518
6238.692,11.68628
6244.478,11.69681
6250.264,11.69562
6256.049,11.69474
6261.834,11.70432
6267.62,11.7139
6273.405,11.71997
6279.191,11.73015
6284.977,11.73663
6290.762,11.73822
6296.547,11.73599
6302.333,11.75456
6308.118,11.74961
6313.904,11.75248
6319.689,11.73729
6325.475,11.71868
6331.26,11.6859
6337.046,11.65788
6342.831,11.62534
6348.617,11.58451
6354.402,11.55214
6360.188,11.51111
6365.974,11.44813
6371.759,11.3587
6377.544,11.29038
6383.33,11.26102
6389.115,11.24191
6394.901,11.22696
6400.687,11.1731
6406.472,11.0878
6412.257,10.97799
6418.043,10.89651
6423.828,10.85569
6429.614,10.83451
6435.399,10.78655
6441.185,10.70201
6446.97,10.58819
6452.756,10.45331
6458.541,10.32248
6464.327,10.1148
6470.112,9.788146
6475.897,9.383663
6481.684,9.133118
6487.469,9.172933
6493.254,9.330318
6499.04,9.497098
6504.825,9.646392
6510.61,9.757419
6516.396,9.841386
6522.182,9.918371
6527.967,9.983277
6533.753,10.03214
6539.538,10.07501
6545.324,10.12034
6551.109,10.15335
6556.895,10.18557
6562.68,10.22637
6568.466,10.27677
6574.251,10.32483
6580.037,10.35695
6585.822,10.37919
6591.607,10.39642
6597.393,10.40314
6603.179,10.40335
6608.964,10.40193
6614.75,10.39725
6620.535,10.38854
6626.32,10.37467
6632.106,10.36652
6637.892,10.3391
6643.677,10.31106
6649.463,10.28535
6655.248,10.24715
6661.034,10.20609
6666.819,10.16712
6672.604,10.13022
6678.39,10.0811
6684.176,10.03594
6689.961,9.981932
6695.747,9.923844
6701.532,9.865602
6707.317,9.793369
6713.103,9.717322
6718.889,9.644442
6724.674,9.576748
6730.459,9.519582
6736.245,9.459306
6742.03,9.400101
6747.816,9.339842
6753.602,9.283807
6759.387,9.221926
6765.173,9.159982
6770.958,9.085368
6776.743,8.994913
6782.529,8.882782
6788.314,8.757706
6794.1,8.622522
6799.886,8.483783
6805.671,8.351629
6811.457,8.233706
6817.242,8.115994
6823.027,7.976555
6828.813,7.82116
6834.599,7.70319
6840.384,7.638839
6846.169,7.601759
6851.955,7.538644
6857.74,7.476944
6863.526,7.427332
6869.312,7.372929
6875.097,7.312996
6880.882,7.23609
6886.668,7.15342
6892.453,7.06328
6898.239,6.99681
6904.024,6.94001
6909.81,6.900402
6915.596,6.843822
6921.381,6.768353
6927.166,6.676756
6932.952,6.557951
6938.737,6.424917
6944.523,6.298008
6950.309,6.224516
6956.094,6.213023
6961.879,6.230007
6967.665,6.24122
6973.45,6.261419
6979.236,6.258228
6985.021,6.240591
6990.807,6.201444
6996.592,6.158353
7002.378,6.09765
7008.163,6.024193
7013.949,5.962696
7019.734,5.913424
7025.52,5.906782
7031.305,5.938472
7037.091,5.984309
7042.876,5.983232
7048.662,5.916859
7054.447,5.776079
7060.232,5.623776
7066.019,5.615308
7071.804,5.816767
7077.589,6.085874
7083.375,6.270651
7089.16,6.355097
7094.946,6.418355
7100.731,6.487379
7106.517,6.611183
7112.302,6.727261
7118.088,6.875822
7123.873,6.961749
7129.659,6.990957
7135.444,6.936997
7141.229,6.824596
7147.015,6.684997
7152.801,6.45626
7158.586,6.075971
7164.372,5.523805
7170.157,5.128931
7175.942,5.184043
7181.729,5.536878
7187.514,5.94122
7193.299,6.328598
7199.085,6.658827
7204.87,6.991666
7210.655,7.256045
7216.441,7.481627
7222.227,7.722959
7228.012,8.036786
7233.798,8.323478
7239.583,8.594887
7245.369,8.832209
7251.154,9.107325
7256.939,9.342072
7262.725,9.598305
7268.511,9.832104
7274.296,10.07836
7280.082,10.29956
7285.867,10.52343
7291.652,10.73792
7297.438,10.9402
7303.224,11.14752
7309.009,11.37471
7314.794,11.57221
7320.58,11.75924
7326.365,11.94387
7332.151,12.04567
7337.937,12.2061
7343.722,12.2821
7349.508,12.34925
7355.293,12.44323
7361.079,12.49376
7366.864,12.56213
7372.649,12.60032
7378.435,12.6571
7384.221,12.69466
7390.006,12.73124
7395.792,12.76625
7401.577,12.7912
7407.362,12.8197
7413.148,12.84526
7418.934,12.86639
7424.719,12.87355
7430.504,12.88922
7436.29,12.9115
7442.075,12.92109
7447.861,12.93934
7453.646,12.95678
7459.432,12.97559
7465.218,12.98226
7471.003,12.99825
7476.788,12.99968
7482.574,12.99885
7488.359,12.98774
7494.145,12.98294
7499.931,12.97349
7505.716,12.95665
7511.501,12.95888
7517.287,12.94251
7523.072,12.94214
7528.858,12.92927
7534.644,12.91285
7540.429,12.8926
7546.214,12.87675
7552.0,12.8499
7557.785,12.84058
7563.571,12.81698
7569.356,12.7925
7575.142,12.7732
7580.927,12.75129
7586.713,12.74122
7592.498,12.71205
7598.284,12.6876
7604.069,12.64809
7609.854,12.62432
7615.641,12.58826
7621.426,12.55207
7627.211,12.51165
7632.997,12.46241
7638.782,12.42383
7644.568,12.39075
7650.354,12.35464
7656.139,12.31436
7661.924,12.28873
7667.71,12.26094
7673.495,12.22473
7679.281,12.20801
7685.066,12.18948
7690.852,12.15985
7696.637,12.14932
7702.423,12.12724
7708.208,12.10944
7713.994,12.07999
7719.779,12.05181
7725.564,12.04297
7731.35,12.00419
7737.136,11.99705
7742.921,11.98039
7748.707,11.95054
7754.492,11.92507
7760.277,11.88007
7766.063,11.84882
7771.849,11.82024
7777.634,11.8016
7783.42,11.79502
7789.205,11.78078
7794.991,11.77358
7800.776,11.75513
7806.562,11.71117
7812.347,11.68202
7818.133,11.6606
7823.918,11.62967
7829.704,11.60493
7835.489,11.57027
7841.274,11.53588
7847.06,11.49825
7852.846,11.45796
7858.631,11.40718
7864.417,11.36709
7870.202,11.30869
7875.987,11.25753
7881.773,11.19278
7887.559,11.14238
7893.344,11.07641
7899.13,11.00783
7904.915,10.96732
7910.7,10.89955
7916.486,10.84775
7922.271,10.76678
7928.057,10.70666
7933.843,10.62082
7939.628,10.55439
7945.414,10.47393
7951.199,10.39293
7956.984,10.30215
7962.77,10.21903
7968.556,10.11254
7974.341,10.02354
7980.126,9.934948
7985.912,9.842931
7991.697,9.742932
7997.483,9.644828
8003.269,9.53965
8009.054,9.436371
8014.839,9.313102
8020.625,9.202943
8026.41,9.084542
8032.196,8.963565
8037.981,8.837395
8043.767,8.715403
8049.553,8.586279
8055.338,8.442553
8061.124,8.298343
8066.909,8.169069
8072.694,8.029483
8078.48,7.888008
8084.266,7.742801
8090.051,7.599218
8095.836,7.451566
8101.622,7.303979
8107.407,7.147368
8113.192,6.984011
8118.979,6.825015
8124.764,6.659543
8130.55,6.492685
8136.335,6.328366
8142.12,6.185948
8147.906,6.010952
8153.691,5.85591
8159.477,5.679536
8165.263,5.533368
8171.048,5.367337
8176.833,5.231391
8182.619,5.099398
8188.404,4.977216
8194.189,4.863062
8199.976,4.801182
8205.761,4.727789
8211.546,4.686952
8217.332,4.673219
8223.117,4.658158
8228.902,4.664214
8234.688,4.67602
8240.474,4.699054
8246.259,4.714968
8252.045,4.743066
8257.83,4.757447
8263.616,4.817971
8269.401,4.855321
8275.187,4.945478
8280.973,5.001101
8286.758,5.098686
8292.543,5.210225
8298.329,5.32039
8304.114,5.43085
8309.899,5.534313
8315.686,5.645689
8321.471,5.763218
8327.256,5.861526
8333.042,5.979014
8338.827,6.100367
8344.612,6.245168
8350.398,6.410179
8356.184,6.566681
8361.969,6.736148
8367.755,6.902425
8373.54,7.062777
8379.325,7.213555
8385.111,7.34807
8390.896,7.446755
8396.683,7.536719
8402.468,7.557308
8408.253,7.553282
8414.039,7.51146
8419.824,7.465638
8425.609,7.466718
8431.396,7.51841
8437.181,7.633549
8442.966,7.788828
8448.752,7.969423
8454.537,8.152386
8460.322,8.299425
8466.108,8.416971
8471.894,8.546571
8477.679,8.701195
8483.465,8.867677
8489.25,9.024348
8495.035,9.16566
8500.821,9.251371
8506.606,9.315959
8512.392,9.330742
8518.178,9.372093
8523.963,9.43837
8529.748,9.489495
8535.534,9.495581
8541.319,9.440522
8547.105,9.324252
8552.891,9.129189
8558.676,8.896455
8564.462,8.744438
8570.247,8.853847
8576.032,9.073471
8581.818,9.331687
8587.604,9.599483
8593.389,9.903723
8599.175,10.2217
8604.96,10.52842
8610.745,10.80852
8616.531,11.05116
8622.316,11.30003
8628.102,11.49136
8633.888,11.66879
8639.673,11.81952
8645.458,11.98381
8651.244,12.11601
8657.029,12.23629
8662.814,12.34654
8668.601,12.44088
8674.386,12.5431
8680.172,12.6254
8685.957,12.7415
8691.742,12.84866
8697.528,12.96404
8703.313,13.07433
8709.099,13.18618
8714.885,13.27609
8720.67,13.41219
8726.455,13.5137
8732.241,13.62295
8738.026,13.74766
8743.812,13.86069
8749.598,13.95283
8755.383,14.04483
8761.168,14.14955
8766.954,14.21326
8772.739,14.30062
8778.524,14.35405
8784.311,14.42736
8790.096,14.46453
8795.881,14.49378
8801.667,14.54514
8807.452,14.57834
8813.237,14.61957
8819.023,14.61918
8824.809,14.66595
8830.595,14.67708
8836.38,14.68916
8842.165,14.70588
8847.951,14.71351
8853.736,14.71787
8859.521,14.72441
8865.308,14.74838
8871.093,14.7441
8876.878,14.75151
8882.664,14.75103
8888.449,14.74161
8894.234,14.73123
8900.021,14.74169
8905.806,14.72612
8911.591,14.70162
8917.377,14.70473
8923.162,14.70454
8928.947,14.68388
8934.733,14.67942
8940.519,14.67058
8946.304,14.6692
8952.09,14.66454
8957.875,14.66406
8963.661,14.66118
8969.446,14.68141
8975.231,14.67768
8981.018,14.7012
8986.803,14.67556
8992.588,14.71017
8998.374,14.70992
9004.159,14.75233
9009.944,14.7365
9015.73,14.76503
9021.516,14.76358
9027.301,14.77997
9033.087,14.77374
9038.872,14.78471
9044.657,14.79998
9050.443,14.79222
9056.229,14.79679
9062.014,14.81198
9067.8,14.83554
9073.585,14.81734
9079.37,14.80733
9085.156,14.84272
9090.941,14.83803
9096.727,14.84948
9102.513,14.84944
9108.298,14.85553
9114.084,14.85039
9119.869,14.82215
9125.654,14.82871
9131.44,14.82396
9137.226,14.80843
9143.011,14.79556
9148.797,14.7906
9154.582,14.79368
9160.367,14.7777
9166.153,14.75687
9171.938,14.76018
9177.724,14.76274
9183.51,14.75619
9189.295,14.72334
9195.08,14.69361
9200.866,14.69934
9206.651,14.68201
9212.437,14.68029
9218.223,14.68253
9224.008,14.68088
9229.793,14.64026
9235.579,14.64367
9241.364,14.63842
9247.15,14.62809
9252.936,14.62062
9258.721,14.59937
9264.507,14.5853
9270.292,14.59932
9276.077,14.5717
9281.863,14.54654
9287.648,14.53807
9293.434,14.54083
9299.22,14.53725
9305.005,14.54984
9310.79,14.53079
9316.576,14.57856
9322.361,14.5537
9328.146,14.56354
9333.933,14.56092
9339.718,14.53716
9345.503,14.55373
9351.289,14.53496
9357.074,14.51375
9362.859,14.50403
9368.646,14.48251
9374.431,14.45965
9380.217,14.45345
9386.002,14.4211
9391.787,14.39771
9397.573,14.3753
9403.358,14.3806
9409.144,14.34198
9414.93,14.32443
9420.715,14.28136
9426.5,14.27331
9432.286,14.23819
9438.071,14.20264
9443.856,14.18419
9449.643,14.166
9455.428,14.12791
9461.213,14.06669
9466.999,14.05465
9472.784,14.02874
9478.569,14.01071
9484.355,14.02346
9490.141,13.97305
9495.926,13.9574
9501.712,13.95665
9507.497,13.94604
9513.282,13.9176
9519.068,13.8986
9524.854,13.8744
9530.64,13.88211
9536.425,13.84855
9542.21,13.81648
9547.996,13.81011
9553.781,13.78122
9559.566,13.75077
9565.353,13.72768
9571.138,13.71381
9576.923,13.69576
9582.709,13.66027
9588.494,13.63769
9594.279,13.62349
9600.065,13.62642
9605.851,13.65961
9611.636,13.69917
9617.422,13.73047
9623.207,13.75232
9628.992,13.77945
9634.778,13.79215
9640.563,13.84013
9646.349,13.88768
9652.135,13.93601
9657.92,13.9831
9663.706,14.013
9669.491,14.08269
9675.276,14.08359
9681.063,14.13774
9686.848,14.15219
9692.633,14.22533
9698.419,14.2408
9704.204,14.2982
9709.989,14.34278
9715.775,14.38959
9721.561,14.42937
9727.346,14.4543
9733.132,14.5102
9738.917,14.53768
9744.702,14.56546
9750.488,14.59145
9756.273,14.63988
9762.059,14.66868
9767.845,14.66746
9773.63,14.6956
9779.415,14.70048
9785.201,14.69408
9790.986,14.69068
9796.771,14.69435
9802.558,14.70342
9808.343,14.68744
9814.129,14.66895
9819.914,14.69932
9825.699,14.69403
9831.485,14.71138
9837.271,14.71542
9843.056,14.74829
9848.842,14.77916
9854.627,14.82196
9860.412,14.88039
9866.198,14.91095
9871.983,14.97115
9877.769,15.01583
9883.555,15.04871
9889.34,15.10557
9895.125,15.15175
9900.911,15.18796
9906.696,15.21299
9912.481,15.22138
9918.268,15.287
9924.053,15.28497
9929.838,15.31806
9935.624,15.38079
9941.409,15.3758
9947.195,15.41269
9952.98,15.41934
9958.766,15.45848
9964.552,15.50367
9970.337,15.50993
9976.122,15.52318
9981.908,15.55327
9987.693,15.59073
9993.479,15.60527
9999.265,15.58292
10005.05,15.62063
10010.83,15.66749
10016.62,15.62971
10022.41,15.67502
10028.19,15.68235
10033.98,15.72686
10039.76,15.73752
10045.55,15.7739
10051.33,15.81533
10057.12,15.79845
10062.9,15.82409
10068.69,15.83896
10074.48,15.81177
10080.26,15.8425
10086.05,15.87228
10091.83,15.87194
10097.62,15.82948
10103.4,15.8801
10109.19,15.85286
10114.97,15.87941
10120.76,15.89178
10126.54,15.91055
10132.33,15.9354
10138.12,15.93556
10143.9,15.93366
10149.69,15.91486
10155.47,15.94106
10161.26,15.92121
10167.04,15.95955
10172.83,15.91994
10178.61,15.92134
10184.4,15.93256
10190.19,15.89092
10195.97,15.94846
10201.76,15.92276
10207.54,15.9508
10213.33,15.96335
10219.11,15.91997
10224.9,15.95672
10230.68,15.94069
10236.47,15.92727
10242.25,15.89587
10248.04,15.94092
10253.83,15.93093
10259.61,15.92783
10265.4,15.92888
10271.18,15.90248
10276.97,15.88692
10282.75,15.88977
10288.54,15.88417
10294.32,15.86304
10300.11,15.91582
10305.9,15.8799
10311.68,15.86992
10317.47,15.84515
10323.25,15.88887
10329.04,15.8393
10334.82,15.7997
10340.61,15.85522
10346.39,15.84015
10352.18,15.83128
10357.96,15.81206
10363.75,15.88685
10369.54,15.76907
10375.32,15.79883
10381.11,15.79587
10386.89,15.78182
10392.68,15.80693
10398.46,15.77032
10404.25,15.74637
10410.03,15.74294
10415.82,15.77977
10421.61,15.7338
10427.39,15.70074
10433.18,15.64589
10438.96,15.65246
10444.75,15.64602
10450.53,15.59323
10456.32,15.65197
10462.1,15.58705
10467.89,15.60611
10473.67,15.55949
10479.46,15.59119
10485.25,15.52992
10491.03,15.41057
10496.82,15.3924
10502.6,15.35659
10508.39,15.32407
10514.17,15.31798
10519.96,15.30731
10525.74,15.24323
10531.53,15.11842
10537.32,15.07174
10543.1,15.07023
10548.89,14.99025
10554.67,14.91198
10560.46,14.84819
10566.24,14.76876
10572.03,14.70241
10577.81,14.59111
10583.6,14.46622
10589.38,14.37808
10595.17,14.34023
10600.96,14.18055
10606.74,14.10962
10612.53,14.03098
10618.31,13.88117
10624.1,13.78898
10629.88,13.61156
10635.67,13.50479
10641.45,13.32006
10647.24,13.24303
10653.03,13.06849
10658.81,12.99392
10664.6,12.81259
10670.38,12.76611
10676.17,12.60551
10681.95,12.4941
10687.74,12.37177
10693.52,12.3091
10699.31,12.23622
10705.09,12.20173
10710.88,12.16778
10716.67,12.17725
10722.45,12.14953
10728.24,12.18019
10734.02,12.17393
10739.81,12.22378
10745.59,12.24785
10751.38,12.24254
10757.16,12.33534
10762.95,12.44263
10768.74,12.44313
10774.52,12.5056
10780.31,12.62344
10786.09,12.65285
10791.88,12.85083
10797.66,12.88831
10803.45,13.0003
10809.23,13.04957
10815.02,13.16085
10820.8,13.20949
10826.59,13.30331
10832.38,13.48689
10838.16,13.56954
10843.95,13.66805
10849.73,13.80362
10855.52,13.86712
10861.3,13.96422
10867.09,14.04463
10872.87,14.14908
10878.66,14.26852
10884.45,14.33292
10890.23,14.36469
10896.02,14.51691
10901.8,14.59589
10907.59,14.6508
10913.37,14.76187
10919.16,14.90062
10924.94,14.91694
10930.73,14.96437
10936.51,15.06382
10942.3,15.16234
10948.09,15.18828
10953.87,15.29942
10959.66,15.37564
10965.44,15.45782
10971.23,15.46524
10977.01,15.5018
10982.8,15.57735
10988.58,15.62212
10994.37,15.69939
11000.16,15.73012
11005.94,15.75589
11011.73,15.76103
11017.51,15.81836
11023.3,15.96865
11029.08,15.87189
11034.87,15.93525
11040.65,16.00284
11046.44,15.98523
11052.22,15.98963
11058.01,16.01177
11063.79,15.98166
11069.58,16.05971
11075.37,16.06565
11081.15,16.12713
11086.94,16.10283
11092.72,16.1242
11098.51,16.22731
11104.29,16.10502
11110.08,16.15439
11115.87,16.12129
11121.65,16.19173
11127.44,16.0544
11133.22,16.17633
11139.01,16.1961
11144.79,16.27581
11150.58,16.24328
11156.36,16.24111
11162.15,16.25909
11167.93,16.324
11173.72,16.32933
11179.5,16.37648
11185.29,16.39147
11191.08,16.44397
11196.86,16.49153
11202.65,16.48518
11208.43,16.522
11214.22,16.54722
11220.0,16.55316
11225.79,16.59935
11231.58,16.74841
11237.36,16.7089
11243.15,16.62178
11248.93,16.59862
11254.72,16.79035
11260.5,16.77719
11266.29,16.76461
11272.07,16.80264
11277.86,16.84015
11283.64,16.78671
11289.43,16.75056
11295.21,16.93469
11301.0,16.80555
11306.79,16.92494
11312.57,16.86198
11318.36,16.82786
11324.14,16.90862
11329.93,17.01902
11335.71,16.9512
11341.5,16.94012
11347.28,16.96313
11353.07,16.85102
11358.86,16.89851
11364.64,17.01042
11370.43,17.0963
11376.21,16.9709
11382.0,16.95811
11387.78,17.04807
11393.57,17.05691
11399.35,16.95796
11405.14,17.06448
11410.92,17.06138
11416.71,16.94731
11422.5,17.09957
11428.28,17.127
11434.07,17.03002
11439.85,17.12578
11445.64,17.13368
11451.42,17.18098
11457.21,17.24915
11462.99,17.2058
11468.78,17.13408
11474.57,17.20244
11480.35,17.23903
11486.14,17.2339
11491.92,17.19398
11497.71,17.21446
11503.49,17.17274
11509.28,17.25321
11515.06,17.23108
11520.85,17.32789
11526.63,17.22865
11532.42,17.36115
11538.21,17.29784
11543.99,17.33719
11549.78,17.28843
11555.56,17.29718
11561.35,17.40353
11567.13,17.38695
11572.92,17.28976
11578.7,17.38781
11584.49,17.31365
11590.28,17.40397
11596.06,17.32504
11601.85,17.29035
11607.63,17.32066
11613.42,17.32071
11619.2,17.3539
11624.99,17.37187
11630.77,17.3758
11636.56,17.47349
11642.34,17.41592
11648.13,17.44982
11653.92,17.44559
11659.7,17.39973
11665.49,17.37188
11671.27,17.53798
11677.06,17.35715
11682.84,17.48287
11688.63,17.44984
11694.41,17.36471
11700.2,17.35703
11705.99,17.449
11711.77,17.45974
11717.56,17.32714
11723.34,17.2332
11729.13,17.24301
11734.91,17.48254
11740.7,17.36311
11746.48,17.27504
11752.27,17.23115
11758.05,17.31303
11763.84,17.38685
11769.63,17.2706
11775.41,17.32133
11781.2,17.31996
11786.98,17.27144
11792.77,17.22384
11798.55,17.44924
11804.34,17.27002
11810.12,17.32135
11815.91,17.4213
11821.7,17.35487
11827.48,17.20523
11833.27,17.21815
11839.05,17.30609
11844.84,17.29749
11850.62,17.21248
11856.41,17.2281
11862.19,17.22177
11867.98,17.21366
11873.76,17.25231
11879.55,17.19073
11885.34,17.26644
11891.12,17.18096
11896.91,17.21206
11902.69,17.10278
11908.48,16.94575
11914.26,17.11746
11920.05,17.12355
11925.83,16.96848
11931.62,17.10556
11937.41,17.17232
11943.19,16.98377
11948.98,16.98984
11954.76,16.79209
11960.55,17.03219
11966.33,17.00648
11972.12,17.02205
11977.9,16.81586
11983.69,16.94733
11989.47,16.96891
11995.26,16.8447
11999.12,16.7619