File: Data/NIR/S0048HDPE_5.csv
Wavenumber,Intensity
3999.706,3.247462
4005.491,3.245829
4011.277,3.237162
4017.062,3.21397
4022.848,3.214148
4028.633,3.22113
4034.419,3.227251
4040.204,3.225884
4045.99,3.229108
4051.775,3.229876
4057.561,3.232611
4063.346,3.231901
4069.132,3.230017
4074.917,3.230653
4080.703,3.233577
4086.488,3.222055
4092.274,3.220477
4098.059,3.217843
4103.845,3.224315
4109.63,3.225343
4115.416,3.229772
4121.201,3.233737
4126.987,3.232527
4132.772,3.229313
4138.558,3.22996
4144.343,3.234586
4150.129,3.235132
4155.914,3.236476
4161.7,3.239306
4167.485,3.243919
4173.271,3.246737
4179.056,3.253964
4184.842,3.2554
4190.627,3.261372
4196.413,3.272313
4202.198,3.280095
4207.983,3.294278
4213.769,3.297581
4219.555,3.307301
4225.34,3.311869
4231.125,3.325262
4236.911,3.332874
4242.697,3.320685
4248.482,3.311643
4254.268,3.315182
4260.053,3.332565
4265.838,3.354706
4271.624,3.362376
4277.41,3.372883
4283.195,3.389912
4288.98,3.395465
4294.766,3.407819
4300.552,3.405742
4306.337,3.387232
4312.123,3.359265
4317.908,3.335941
4323.693,3.331057
4329.479,3.338152
4335.265,3.346457
4341.05,3.357289
4346.835,3.36826
4352.621,3.397245
4358.407,3.420575
4364.192,3.43905
4369.978,3.457979
4375.763,3.484607
4381.548,3.512232
4387.334,3.548392
4393.12,3.594919
4398.905,3.643903
4404.69,3.703377
4410.476,3.773703
4416.262,3.832947
4422.047,3.886247
4427.833,3.929433
4433.618,3.963125
4439.403,4.006604
4445.189,4.05086
4450.975,4.113787
4456.76,4.170044
4462.545,4.228448
4468.331,4.273213
4474.116,4.31147
4479.902,4.361382
4485.688,4.423443
4491.473,4.483689
4497.258,4.539082
4503.044,4.597249
4508.83,4.6576
4514.615,4.7258
4520.4,4.782876
4526.186,4.834933
4531.971,4.888484
4537.757,4.956558
4543.542,5.012854
4549.328,5.077648
4555.113,5.143544
4560.899,5.222734
4566.685,5.288629
4572.47,5.345285
4578.255,5.385633
4584.041,5.422148
4589.826,5.453986
4595.612,5.47651
4601.397,5.486665
4607.183,5.512108
4612.968,5.536085
4618.754,5.560819
4624.539,5.588971
4630.325,5.616811
4636.11,5.622517
4641.896,5.633255
4647.681,5.631184
4653.467,5.607398
4659.252,5.54583
4665.038,5.469108
4670.823,5.480253
4676.609,5.567824
4682.394,5.660603
4688.18,5.707214
4693.965,5.718021
4699.751,5.724705
4705.536,5.715176
4711.322,5.686437
4717.107,5.65319
4722.893,5.6197
4728.678,5.595341
4734.464,5.580328
4740.249,5.574375
4746.035,5.556708
4751.82,5.534252
4757.605,5.509286
4763.391,5.473693
4769.177,5.415284
4774.962,5.351439
4780.748,5.317117
4786.533,5.306499
4792.319,5.293407
4798.104,5.273908
4803.89,5.24176
4809.675,5.20249
4815.46,5.153947
4821.246,5.10967
4827.032,5.077477
4832.817,5.047103
4838.603,5.006336
4844.388,4.958309
4850.174,4.902999
4855.959,4.857909
4861.745,4.821078
4867.53,4.79266
4873.315,4.792608
4879.101,4.815545
4884.887,4.835515
4890.672,4.857232
4896.458,4.87559
4902.243,4.887437
4908.028,4.901708
4913.814,4.902428
4919.6,4.897491
4925.385,4.894028
4931.17,4.892215
4936.956,4.894075
4942.742,4.881036
4948.527,4.842901
4954.313,4.762333
4960.098,4.66166
4965.883,4.636944
4971.669,4.685172
4977.455,4.710226
4983.24,4.739601
4989.025,4.780923
4994.811,4.827266
5000.597,4.894242
5006.382,4.933928
5012.167,4.95034
5017.953,4.945899
5023.738,4.965247
5029.524,4.988661
5035.31,4.999843
5041.095,5.003101
5046.88,5.00123
5052.666,4.985281
5058.451,4.953069
5064.237,4.933932
5070.022,4.936686
5075.808,4.942797
5081.593,4.93733
5087.379,4.924283
5093.165,4.90906
5098.95,4.901124
5104.735,4.910765
5110.521,4.928349
5116.307,4.939776
5122.092,4.948236
5127.877,4.962246
5133.663,4.968645
5139.448,4.958294
5145.234,4.934753
5151.02,4.909738
5156.805,4.885966
5162.59,4.88206
5168.376,4.887216
5174.161,4.886574
5179.947,4.875286
5185.732,4.872432
5191.518,4.873632
5197.303,4.889533
5203.089,4.892138
5208.874,4.899504
5214.66,4.882462
5220.445,4.886157
5226.231,4.906299
5232.016,4.90413
5237.802,4.91081
5243.587,4.939301
5249.373,4.940228
5255.158,4.958739
5260.944,4.959806
5266.729,4.954515
5272.515,4.938092
5278.3,4.937421
5284.086,4.951542
5289.871,4.955591
5295.657,4.925995
5301.442,4.898596
5307.228,4.876024
5313.013,4.890704
5318.799,4.971989
5324.584,5.015543
5330.37,5.014119
5336.155,5.003933
5341.94,4.954211
5347.726,4.895343
5353.512,4.836772
5359.297,4.781671
5365.083,4.738565
5370.868,4.692776
5376.654,4.682827
5382.439,4.670637
5388.225,4.650595
5394.01,4.630508
5399.796,4.577023
5405.581,4.537769
5411.367,4.489543
5417.152,4.401701
5422.938,4.377116
5428.723,4.369714
5434.509,4.357206
5440.294,4.361143
5446.08,4.340747
5451.865,4.319965
5457.65,4.315424
5463.436,4.307837
5469.222,4.29278
5475.007,4.280659
5480.792,4.237354
5486.578,4.20921
5492.363,4.207768
5498.149,4.21123
5503.935,4.223314
5509.72,4.238456
5515.505,4.256915
5521.291,4.257775
5527.077,4.252423
5532.862,4.249717
5538.647,4.24138
5544.433,4.230597
5550.219,4.220589
5556.004,4.223176
5561.79,4.235898
5567.575,4.26561
5573.36,4.310998
5579.146,4.363098
5584.932,4.402608
5590.717,4.41183
5596.502,4.399024
5602.288,4.365461
5608.073,4.322045
5613.859,4.275922
5619.645,4.235875
5625.43,4.194261
5631.215,4.159128
5637.001,4.119792
5642.786,4.066829
5648.572,3.972708
5654.357,3.845618
5660.143,3.752427
5665.929,3.739104
5671.714,3.784429
5677.5,3.853683
5683.285,3.90774
5689.07,3.95285
5694.856,4.006665
5700.642,4.081258
5706.427,4.150146
5712.212,4.183176
5717.998,4.163932
5723.783,4.060155
5729.569,3.904989
5735.354,3.869578
5741.14,3.853507
5746.925,3.8066
5752.711,3.744989
5758.496,3.697128
5764.282,3.647443
5770.067,3.606845
5775.853,3.597932
5781.638,3.615832
5787.424,3.643224
5793.209,3.672746
5798.995,3.700618
5804.78,3.72703
5810.566,3.759192
5816.352,3.793886
5822.137,3.830017
5827.922,3.884222
5833.708,3.947695
5839.493,4.01101
5845.279,4.106601
5851.064,4.244272
5856.85,4.448293
5862.635,4.720813
5868.421,5.025059
5874.206,5.317678
5879.992,5.583955
5885.777,5.809584
5891.563,6.003267
5897.348,6.164546
5903.134,6.321896
5908.919,6.465121
5914.705,6.609584
5920.49,6.750985
5926.276,6.897287
5932.061,7.03934
5937.847,7.181068
5943.632,7.314898
5949.418,7.439212
5955.203,7.59613
5960.989,7.786238
5966.774,8.021309
5972.56,8.262486
5978.345,8.484607
5984.131,8.691958
5989.916,8.886094
5995.702,9.057639
6001.487,9.228013
6007.272,9.38448
6013.058,9.537436
6018.844,9.696234
6024.629,9.850563
6030.415,9.989135
6036.2,10.10458
6041.985,10.20626
6047.771,10.30968
6053.557,10.3983
6059.342,10.4812
6065.128,10.54806
6070.913,10.61374
6076.698,10.67862
6082.484,10.7316
6088.27,10.78347
6094.055,10.7966
6099.841,10.7409
6105.626,10.67426
6111.412,10.70101
6117.197,10.80646
6122.982,10.89946
6128.768,10.97237
6134.554,11.04505
6140.339,11.11628
6146.125,11.16904
6151.91,11.21785
6157.695,11.25544
6163.481,11.30329
6169.267,11.35125
6175.052,11.40681
6180.837,11.43141
6186.623,11.46012
6192.408,11.48096
6198.194,11.50081
6203.979,11.52187
6209.765,11.55117
6215.551,11.57588
6221.336,11.60247
6227.121,11.62327
6232.907,11.63803
6238.692,11.64971
6244.478,11.65833
6250.264,11.66045
6256.049,11.65611
6261.834,11.66622
6267.62,11.67667
6273.405,11.68617
6279.191,11.69539
6284.977,11.70014
6290.762,11.70574
6296.547,11.70738
6302.333,11.71669
6308.118,11.71585
6313.904,11.71961
6319.689,11.70418
6325.475,11.68445
6331.26,11.65674
6337.046,11.63115
6342.831,11.5972
6348.617,11.55588
6354.402,11.51697
6360.188,11.48269
6365.974,11.41787
6371.759,11.32355
6377.544,11.26007
6383.33,11.23311
6389.115,11.21675
6394.901,11.18924
6400.687,11.14342
6406.472,11.05002
6412.257,10.94572
6418.043,10.87071
6423.828,10.82228
6429.614,10.80562
6435.399,10.75905
6441.185,10.675
6446.97,10.55628
6452.756,10.42117
6458.541,10.29095
6464.327,10.08425
6470.112,9.757915
6475.897,9.355459
6481.684,9.098815
6487.469,9.141287
6493.254,9.3037
6499.04,9.46927
6504.825,9.617544
6510.61,9.723966
6516.396,9.818739
6522.182,9.894917
6527.967,9.959145
6533.753,10.00908
6539.538,10.05273
6545.324,10.08924
6551.109,10.12801
6556.895,10.15919
6562.68,10.1989
6568.466,10.25318
6574.251,10.30175
6580.037,10.33549
6585.822,10.3594
6591.607,10.3734
6597.393,10.38078
6603.179,10.37522
6608.964,10.37988
6614.75,10.3784
6620.535,10.36924
6626.32,10.35443
6632.106,10.34277
6637.892,10.31664
6643.677,10.29317
6649.463,10.2655
6655.248,10.2264
6661.034,10.18723
6666.819,10.15094
6672.604,10.1079
6678.39,10.06712
6684.176,10.0218
6689.961,9.960894
6695.747,9.910531
6701.532,9.8427
6707.317,9.776402
6713.103,9.703213
6718.889,9.626851
6724.674,9.559844
6730.459,9.50174
6736.245,9.443567
6742.03,9.381692
6747.816,9.326137
6753.602,9.270139
6759.387,9.207996
6765.173,9.150928
6770.958,9.067867
6776.743,8.979017
6782.529,8.865779
6788.314,8.747243
6794.1,8.610714
6799.886,8.470108
6805.671,8.340524
6811.457,8.223904
6817.242,8.111519
6823.027,7.966891
6828.813,7.813301
6834.599,7.700051
6840.384,7.631441
6846.169,7.593417
6851.955,7.537414
6857.74,7.476596
6863.526,7.42368
6869.312,7.370219
6875.097,7.306581
6880.882,7.232065
6886.668,7.156404
6892.453,7.06849
6898.239,6.992476
6904.024,6.948327
6909.81,6.902263
6915.596,6.848989
6921.381,6.767304
6927.166,6.677802
6932.952,6.5627
6938.737,6.432238
6944.523,6.301837
6950.309,6.228714
6956.094,6.219678
6961.879,6.236972
6967.665,6.248629
6973.45,6.264165
6979.236,6.262514
6985.021,6.255637
6990.807,6.208797
6996.592,6.164376
7002.378,6.099386
7008.163,6.033677
7013.949,5.979876
7019.734,5.923522
7025.52,5.921193
7031.305,5.946797
7037.091,5.989283
7042.876,5.992558
7048.662,5.930915
7054.447,5.783404
7060.232,5.630795
7066.019,5.628004
7071.804,5.831618
7077.589,6.095497
7083.375,6.276949
7089.16,6.363631
7094.946,6.422889
7100.731,6.492353
7106.517,6.620607
7112.302,6.733269
7118.088,6.890522
7123.873,6.964726
7129.659,6.992508
7135.444,6.942382
7141.229,6.834577
7147.015,6.689478
7152.801,6.469416
7158.586,6.082089
7164.372,5.534733
7170.157,5.155308
7175.942,5.193574
7181.729,5.563355
7187.514,5.954122
7193.299,6.334471
7199.085,6.658968
7204.87,7.006931
7210.655,7.26078
7216.441,7.481528
7222.227,7.731144
7228.012,8.035099
7233.798,8.339622
7239.583,8.592816
7245.369,8.844354
7251.154,9.107141
7256.939,9.354258
7262.725,9.61282
7268.511,9.850861
7274.296,10.09156
7280.082,10.31392
7285.867,10.5398
7291.652,10.751
7297.438,10.95995
7303.224,11.17221
7309.009,11.40506
7314.794,11.60072
7320.58,11.78543
7326.365,11.96804
7332.151,12.08423
7337.937,12.22507
7343.722,12.33512
7349.508,12.39273
7355.293,12.499
7361.079,12.54034
7366.864,12.60724
7372.649,12.64879
7378.435,12.70412
7384.221,12.74425
7390.006,12.78321
7395.792,12.82127
7401.577,12.84584
7407.362,12.87328
7413.148,12.89989
7418.934,12.9205
7424.719,12.92913
7430.504,12.9504
7436.29,12.96909
7442.075,12.97246
7447.861,12.99627
7453.646,13.02243
7459.432,13.04099
7465.218,13.05549
7471.003,13.05595
7476.788,13.05805
7482.574,13.0621
7488.359,13.05151
7494.145,13.04376
7499.931,13.03091
7505.716,13.03079
7511.501,13.02652
7517.287,13.00793
7523.072,13.01025
7528.858,12.99669
7534.644,12.98227
7540.429,12.96035
7546.214,12.94332
7552.0,12.91696
7557.785,12.90223
7563.571,12.8832
7569.356,12.85937
7575.142,12.84247
7580.927,12.82365
7586.713,12.7927
7592.498,12.77899
7598.284,12.75231
7604.069,12.71475
7609.854,12.69557
7615.641,12.65928
7621.426,12.61237
7627.211,12.58249
7632.997,12.52805
7638.782,12.48958
7644.568,12.45061
7650.354,12.41755
7656.139,12.37263
7661.924,12.34528
7667.71,12.32679
7673.495,12.2983
7679.281,12.27352
7685.066,12.24285
7690.852,12.2279
7696.637,12.21454
7702.423,12.19003
7708.208,12.16879
7713.994,12.13812
7719.779,12.1125
7725.564,12.09752
7731.35,12.0641
7737.136,12.05462
7742.921,12.04549
7748.707,12.018
7754.492,11.97916
7760.277,11.9447
7766.063,11.91245
7771.849,11.88097
7777.634,11.86245
7783.42,11.85586
7789.205,11.83655
7794.991,11.8286
7800.776,11.80928
7806.562,11.7662
7812.347,11.74334
7818.133,11.72509
7823.918,11.68428
7829.704,11.66406
7835.489,11.62886
7841.274,11.59293
7847.06,11.55295
7852.846,11.51935
7858.631,11.4612
7864.417,11.42428
7870.202,11.36325
7875.987,11.31502
7881.773,11.25169
7887.559,11.20093
7893.344,11.13377
7899.13,11.08452
7904.915,11.01236
7910.7,10.95039
7916.486,10.89233
7922.271,10.81356
7928.057,10.74928
7933.843,10.66962
7939.628,10.60262
7945.414,10.52089
7951.199,10.43288
7956.984,10.34934
7962.77,10.26133
7968.556,10.16742
7974.341,10.06723
7980.126,9.979124
7985.912,9.891717
7991.697,9.79145
7997.483,9.68822
8003.269,9.577622
8009.054,9.477072
8014.839,9.358668
8020.625,9.246743
8026.41,9.125068
8032.196,9.008943
8037.981,8.863753
8043.767,8.752604
8049.553,8.612635
8055.338,8.487357
8061.124,8.333598
8066.909,8.198835
8072.694,8.07006
8078.48,7.919558
8084.266,7.776393
8090.051,7.642458
8095.836,7.490072
8101.622,7.32784
8107.407,7.193268
8113.192,7.020816
8118.979,6.863227
8124.764,6.688999
8130.55,6.527688
8136.335,6.358242
8142.12,6.21072
8147.906,6.042182
8153.691,5.881482
8159.477,5.722878
8165.263,5.559987
8171.048,5.395
8176.833,5.258333
8182.619,5.10955
8188.404,4.99918
8194.189,4.888648
8199.976,4.828723
8205.761,4.74873
8211.546,4.706074
8217.332,4.678652
8223.117,4.679512
8228.902,4.681139
8234.688,4.690926
8240.474,4.72206
8246.259,4.717362
8252.045,4.758253
8257.83,4.771381
8263.616,4.825531
8269.401,4.886616
8275.187,4.964657
8280.973,5.017599
8286.758,5.127714
8292.543,5.238331
8298.329,5.336714
8304.114,5.46142
8309.899,5.576855
8315.686,5.685185
8321.471,5.795906
8327.256,5.89637
8333.042,6.01453
8338.827,6.146975
8344.612,6.286272
8350.398,6.444432
8356.184,6.607397
8361.969,6.779455
8367.755,6.950773
8373.54,7.107311
8379.325,7.256611
8385.111,7.388874
8390.896,7.496381
8396.683,7.566233
8402.468,7.604548
8408.253,7.604145
8414.039,7.557437
8419.824,7.521035
8425.609,7.511029
8431.396,7.565387
8437.181,7.679697
8442.966,7.84023
8448.752,8.009868
8454.537,8.206141
8460.322,8.350108
8466.108,8.47025
8471.894,8.60386
8477.679,8.76818
8483.465,8.927341
8489.25,9.077094
8495.035,9.216332
8500.821,9.311177
8506.606,9.364971
8512.392,9.375259
8518.178,9.440359
8523.963,9.505513
8529.748,9.555573
8535.534,9.565399
8541.319,9.508125
8547.105,9.382131
8552.891,9.200094
8558.676,8.96569
8564.462,8.80599
8570.247,8.911192
8576.032,9.137879
8581.818,9.383915
8587.604,9.666736
8593.389,9.962959
8599.175,10.29759
8604.96,10.60097
8610.745,10.87993
8616.531,11.12085
8622.316,11.37839
8628.102,11.58259
8633.888,11.76442
8639.673,11.9258
8645.458,12.08208
8651.244,12.21419
8657.029,12.35822
8662.814,12.46032
8668.601,12.55495
8674.386,12.65664
8680.172,12.75962
8685.957,12.85683
8691.742,12.97319
8697.528,13.10122
8703.313,13.19591
8709.099,13.32282
8714.885,13.41591
8720.67,13.55297
8726.455,13.65728
8732.241,13.777
8738.026,13.89437
8743.812,14.01233
8749.598,14.10365
8755.383,14.19978
8761.168,14.29288
8766.954,14.38939
8772.739,14.47035
8778.524,14.52891
8784.311,14.59408
8790.096,14.64107
8795.881,14.68224
8801.667,14.72423
8807.452,14.75936
8813.237,14.79239
8819.023,14.7973
8824.809,14.82983
8830.595,14.85779
8836.38,14.86754
8842.165,14.89972
8847.951,14.8854
8853.736,14.90613
8859.521,14.90661
8865.308,14.92902
8871.093,14.94838
8876.878,14.94003
8882.664,14.95052
8888.449,14.93013
8894.234,14.94173
8900.021,14.9221
8905.806,14.92144
8911.591,14.88927
8917.377,14.88867
8923.162,14.88908
8928.947,14.88721
8934.733,14.87423
8940.519,14.86635
8946.304,14.8711
8952.09,14.85165
8957.875,14.8701
8963.661,14.84767
8969.446,14.85773
8975.231,14.8582
8981.018,14.88191
8986.803,14.88684
8992.588,14.88687
8998.374,14.91751
9004.159,14.92454
9009.944,14.9361
9015.73,14.95643
9021.516,14.947
9027.301,14.96294
9033.087,14.97109
9038.872,14.99148
9044.657,15.00284
9050.443,14.99265
9056.229,15.00629
9062.014,15.0161
9067.8,15.02874
9073.585,15.01251
9079.37,15.01717
9085.156,15.03561
9090.941,15.041
9096.727,15.04636
9102.513,15.04588
9108.298,15.04659
9114.084,15.04186
9119.869,15.02619
9125.654,15.04236
9131.44,15.01826
9137.226,15.02231
9143.011,15.01096
9148.797,14.99414
9154.582,14.98527
9160.367,14.99215
9166.153,14.95211
9171.938,14.9663
9177.724,14.9604
9183.51,14.95237
9189.295,14.92085
9195.08,14.90244
9200.866,14.90296
9206.651,14.88623
9212.437,14.89524
9218.223,14.87033
9224.008,14.85715
9229.793,14.84925
9235.579,14.8429
9241.364,14.84171
9247.15,14.83568
9252.936,14.81598
9258.721,14.82193
9264.507,14.7677
9270.292,14.77744
9276.077,14.75647
9281.863,14.74137
9287.648,14.72572
9293.434,14.73579
9299.22,14.74672
9305.005,14.7478
9310.79,14.7363
9316.576,14.76345
9322.361,14.76425
9328.146,14.75498
9333.933,14.75037
9339.718,14.75807
9345.503,14.73562
9351.289,14.72893
9357.074,14.71519
9362.859,14.6978
9368.646,14.67269
9374.431,14.65767
9380.217,14.64745
9386.002,14.60656
9391.787,14.59245
9397.573,14.57454
9403.358,14.55927
9409.144,14.51521
9414.93,14.5122
9420.715,14.49425
9426.5,14.47211
9432.286,14.42243
9438.071,14.40254
9443.856,14.36204
9449.643,14.34057
9455.428,14.31092
9461.213,14.27965
9466.999,14.23928
9472.784,14.22568
9478.569,14.20233
9484.355,14.17601
9490.141,14.1556
9495.926,14.13463
9501.712,14.14963
9507.497,14.12072
9513.282,14.08808
9519.068,14.09712
9524.854,14.06033
9530.64,14.04891
9536.425,14.03597
9542.21,13.99829
9547.996,13.9907
9553.781,13.96261
9559.566,13.93169
9565.353,13.89801
9571.138,13.88634
9576.923,13.86691
9582.709,13.82573
9588.494,13.82657
9594.279,13.80408
9600.065,13.80687
9605.851,13.83523
9611.636,13.8534
9617.422,13.88646
9623.207,13.92888
9628.992,13.97938
9634.778,13.97553
9640.563,14.02252
9646.349,14.04372
9652.135,14.10397
9657.92,14.18565
9663.706,14.20154
9669.491,14.26744
9675.276,14.30554
9681.063,14.34794
9686.848,14.34889
9692.633,14.42475
9698.419,14.46114
9704.204,14.51065
9709.989,14.53285
9715.775,14.58516
9721.561,14.62764
9727.346,14.68631
9733.132,14.72093
9738.917,14.74023
9744.702,14.78067
9750.488,14.81254
9756.273,14.83872
9762.059,14.85308
9767.845,14.89164
9773.63,14.91367
9779.415,14.91103
9785.201,14.92685
9790.986,14.90112
9796.771,14.85816
9802.558,14.8937
9808.343,14.9051
9814.129,14.89491
9819.914,14.91098
9825.699,14.94261
9831.485,14.92918
9837.271,14.93055
9843.056,14.99007
9848.842,15.02962
9854.627,15.06102
9860.412,15.13225
9866.198,15.13962
9871.983,15.22763
9877.769,15.26112
9883.555,15.28625
9889.34,15.34987
9895.125,15.37799
9900.911,15.42764
9906.696,15.47772
9912.481,15.46793
9918.268,15.5065
9924.053,15.5447
9929.838,15.56155
9935.624,15.64258
9941.409,15.63952
9947.195,15.65631
9952.98,15.69706
9958.766,15.72902
9964.552,15.77181
9970.337,15.75984
9976.122,15.80253
9981.908,15.83032
9987.693,15.85083
9993.479,15.84888
9999.265,15.86465
10005.05,15.88306
10010.83,15.91997
10016.62,15.90524
10022.41,15.92885
10028.19,15.94287
10033.98,15.99054
10039.76,16.00963
10045.55,16.01445
10051.33,16.07842
10057.12,16.0758
10062.9,16.08471
10068.69,16.11818
10074.48,16.08628
10080.26,16.10933
10086.05,16.14537
10091.83,16.14749
10097.62,16.13185
10103.4,16.14027
10109.19,16.12812
10114.97,16.1599
10120.76,16.17351
10126.54,16.17233
10132.33,16.19906
10138.12,16.19912
10143.9,16.20287
10149.69,16.20553
10155.47,16.19357
10161.26,16.18376
10167.04,16.22821
10172.83,16.21702
10178.61,16.21543
10184.4,16.22306
10190.19,16.1923
10195.97,16.21502
10201.76,16.22281
10207.54,16.23983
10213.33,16.25322
10219.11,16.23674
10224.9,16.23336
10230.68,16.23097
10236.47,16.21636
10242.25,16.18851
10248.04,16.22112
10253.83,16.23362
10259.61,16.19727
10265.4,16.21833
10271.18,16.18567
10276.97,16.18414
10282.75,16.14153
10288.54,16.18927
10294.32,16.16492
10300.11,16.15499
10305.9,16.16574
10311.68,16.15256
10317.47,16.117
10323.25,16.2182
10329.04,16.15189
10334.82,16.11501
10340.61,16.08342
10346.39,16.10642
10352.18,16.07999
10357.96,16.07808
10363.75,16.1151
10369.54,16.08102
10375.32,16.07746
10381.11,16.08068
10386.89,16.06363
10392.68,16.08318
10398.46,16.0326
10404.25,16.05719
10410.03,16.02046
10415.82,16.01325
10421.61,16.01517
10427.39,15.99582
10433.18,15.95908
10438.96,15.91729
10444.75,15.90299
10450.53,15.87352
10456.32,15.90309
10462.1,15.86481
10467.89,15.87969
10473.67,15.85541
10479.46,15.82597
10485.25,15.79968
10491.03,15.70515
10496.82,15.67447
10502.6,15.65922
10508.39,15.59631
10514.17,15.5931
10519.96,15.53559
10525.74,15.47258
10531.53,15.39218
10537.32,15.34141
10543.1,15.30051
10548.89,15.22307
10554.67,15.15853
10560.46,15.07589
10566.24,14.9966
10572.03,14.94318
10577.81,14.83203
10583.6,14.75958
10589.38,14.61831
10595.17,14.5858
10600.96,14.43274
10606.74,14.32631
10612.53,14.25488
10618.31,14.13002
10624.1,13.96876
10629.88,13.84525
10635.67,13.68025
10641.45,13.55346
10647.24,13.42669
10653.03,13.27651
10658.81,13.16644
10664.6,13.01671
10670.38,12.90398
10676.17,12.77936
10681.95,12.64081
10687.74,12.57303
10693.52,12.52614
10699.31,12.42442
10705.09,12.38904
10710.88,12.32208
10716.67,12.35557
10722.45,12.32934
10728.24,12.29587
10734.02,12.35565
10739.81,12.34602
10745.59,12.37828
10751.38,12.48958
10757.16,12.53386
10762.95,12.59164
10768.74,12.65157
10774.52,12.67654
10780.31,12.79439
10786.09,12.90445
10791.88,13.02667
10797.66,13.00508
10803.45,13.2064
10809.23,13.18353
10815.02,13.36434
10820.8,13.41683
10826.59,13.51068
10832.38,13.64799
10838.16,13.79272
10843.95,13.91469
10849.73,14.03525
10855.52,14.07818
10861.3,14.21688
10867.09,14.2576
10872.87,14.40422
10878.66,14.45212
10884.45,14.60281
10890.23,14.58303
10896.02,14.75745
10901.8,14.87307
10907.59,14.89816
10913.37,15.00654
10919.16,15.13135
10924.94,15.18695
10930.73,15.22955
10936.51,15.40734
10942.3,15.41223
10948.09,15.46213
10953.87,15.56238
10959.66,15.67081
10965.44,15.74493
10971.23,15.67863
10977.01,15.84467
10982.8,15.90809
10988.58,15.92056
10994.37,16.02154
11000.16,16.02961
11005.94,15.99844
11011.73,16.1046
11017.51,16.11553
11023.3,16.28226
11029.08,16.19968
11034.87,16.24647
11040.65,16.26024
11046.44,16.26207
11052.22,16.33525
11058.01,16.35705
11063.79,16.35454
11069.58,16.36072
11075.37,16.35722
11081.15,16.46051
11086.94,16.41626
11092.72,16.37844
11098.51,16.45108
11104.29,16.45077
11110.08,16.46995
11115.87,16.46979
11121.65,16.53341
11127.44,16.41045
11133.22,16.55432
11139.01,16.52289
11144.79,16.55539
11150.58,16.58829
11156.36,16.54751
11162.15,16.53773
11167.93,16.65921
11173.72,16.66447
11179.5,16.71906
11185.29,16.71873
11191.08,16.84001
11196.86,16.73203
11202.65,16.82936
11208.43,16.89231
11214.22,16.84462
11220.0,16.83796
11225.79,16.93814
11231.58,17.06566
11237.36,16.97048
11243.15,17.04734
11248.93,17.04791
11254.72,17.1012
11260.5,17.1425
11266.29,17.0427
11272.07,17.18949
11277.86,17.19018
11283.64,17.22553
11289.43,17.21678
11295.21,17.20429
11301.0,17.19373
11306.79,17.25504
11312.57,17.26541
11318.36,17.21546
11324.14,17.29078
11329.93,17.42612
11335.71,17.27126
11341.5,17.2968
11347.28,17.2879
11353.07,17.28216
11358.86,17.29389
11364.64,17.36103
11370.43,17.39791
11376.21,17.33601
11382.0,17.30535
11387.78,17.45432
11393.57,17.3753
11399.35,17.37841
11405.14,17.38795
11410.92,17.48288
11416.71,17.35724
11422.5,17.53945
11428.28,17.47643
11434.07,17.47799
11439.85,17.58999
11445.64,17.46697
11451.42,17.48545
11457.21,17.50722
11462.99,17.56839
11468.78,17.54041
11474.57,17.579
11480.35,17.54089
11486.14,17.51454
11491.92,17.58165
11497.71,17.5734
11503.49,17.59941
11509.28,17.64903
11515.06,17.67179
11520.85,17.6441
11526.63,17.61928
11532.42,17.80019
11538.21,17.65172
11543.99,17.77486
11549.78,17.74111
11555.56,17.69484
11561.35,17.83699
11567.13,17.75468
11572.92,17.71421
11578.7,17.73946
11584.49,17.63536
11590.28,17.86188
11596.06,17.75286
11601.85,17.86554
11607.63,17.85233
11613.42,17.8842
11619.2,17.67126
11624.99,17.86931
11630.77,17.69754
11636.56,17.85875
11642.34,17.79851
11648.13,17.84354
11653.92,17.81669
11659.7,17.72417
11665.49,17.7875
11671.27,17.85111
11677.06,17.77874
11682.84,17.80033
11688.63,17.91016
11694.41,17.7593
11700.2,17.83769
11705.99,17.8262
11711.77,17.79067
11717.56,17.78391
11723.34,17.72564
11729.13,17.60878
11734.91,17.82718
11740.7,17.65071
11746.48,17.64949
11752.27,17.6919
11758.05,17.7903
11763.84,17.70371
11769.63,17.78514
11775.41,17.65144
11781.2,17.68865
11786.98,17.70426
11792.77,17.62119
11798.55,17.6805
11804.34,17.58587
11810.12,17.5343
11815.91,17.72079
11821.7,17.61911
11827.48,17.58513
11833.27,17.65545
11839.05,17.62374
11844.84,17.56994
11850.62,17.49796
11856.41,17.56395
11862.19,17.51749
11867.98,17.55749
11873.76,17.59415
11879.55,17.66468
11885.34,17.56566
11891.12,17.55156
11896.91,17.5292
11902.69,17.50776
11908.48,17.2949
11914.26,17.62125
11920.05,17.63591
11925.83,17.45658
11931.62,17.46307
11937.41,17.45407
11943.19,17.35166
11948.98,17.25237
11954.76,17.43384
11960.55,17.42621
11966.33,17.27411
11972.12,17.36251
11977.9,17.33187
11983.69,17.21241
11989.47,17.19341
11995.26,17.26206
11999.12,17.22899