File: Data/NIR/S0040HDPE_1.csv
Wavenumber,Intensity
3999.706,3.998509
4005.491,4.003425
4011.277,3.999212
4017.062,3.993584
4022.848,3.98297
4028.633,3.996022
4034.419,3.996017
4040.204,4.001586
4045.99,4.000696
4051.775,4.005987
4057.561,4.004307
4063.346,4.009152
4069.132,4.010023
4074.917,4.014295
4080.703,4.01436
4086.488,4.0148
4092.274,4.010521
4098.059,4.013848
4103.845,4.016313
4109.63,4.014615
4115.416,4.02481
4121.201,4.019813
4126.987,4.023424
4132.772,4.027049
4138.558,4.027564
4144.343,4.03016
4150.129,4.030134
4155.914,4.035929
4161.7,4.038956
4167.485,4.036705
4173.271,4.044082
4179.056,4.052054
4184.842,4.057131
4190.627,4.063599
4196.413,4.070652
4202.198,4.086133
4207.983,4.093807
4213.769,4.104814
4219.555,4.109661
4225.34,4.119332
4231.125,4.127739
4236.911,4.134298
4242.697,4.135275
4248.482,4.128477
4254.268,4.130536
4260.053,4.143917
4265.838,4.159382
4271.624,4.166004
4277.41,4.170953
4283.195,4.17891
4288.98,4.184865
4294.766,4.191863
4300.552,4.190604
4306.337,4.181691
4312.123,4.176093
4317.908,4.164732
4323.693,4.161252
4329.479,4.162592
4335.265,4.171505
4341.05,4.171751
4346.835,4.186185
4352.621,4.19316
4358.407,4.203397
4364.192,4.215053
4369.978,4.223423
4375.763,4.235255
4381.548,4.259883
4387.334,4.283245
4393.12,4.320624
4398.905,4.360961
4404.69,4.41235
4410.476,4.474646
4416.262,4.531063
4422.047,4.577735
4427.833,4.617177
4433.618,4.653877
4439.403,4.691889
4445.189,4.732012
4450.975,4.79105
4456.76,4.850998
4462.545,4.899925
4468.331,4.94079
4474.116,4.967653
4479.902,5.02065
4485.688,5.079764
4491.473,5.143981
4497.258,5.203605
4503.044,5.263864
4508.83,5.319713
4514.615,5.385203
4520.4,5.44158
4526.186,5.493926
4531.971,5.555939
4537.757,5.614615
4543.542,5.679766
4549.328,5.746289
4555.113,5.816082
4560.899,5.888792
4566.685,5.953478
4572.47,6.006269
4578.255,6.051595
4584.041,6.091128
4589.826,6.122186
4595.612,6.143618
4601.397,6.158402
4607.183,6.181105
4612.968,6.207633
4618.754,6.236739
4624.539,6.271463
4630.325,6.295383
4636.11,6.302941
4641.896,6.312859
4647.681,6.312203
4653.467,6.295404
4659.252,6.244636
4665.038,6.173723
4670.823,6.18385
4676.609,6.272165
4682.394,6.352191
4688.18,6.393754
4693.965,6.406291
4699.751,6.410073
4705.536,6.402084
4711.322,6.367332
4717.107,6.329964
4722.893,6.305897
4728.678,6.289024
4734.464,6.282237
4740.249,6.282429
4746.035,6.269464
4751.82,6.250694
4757.605,6.227005
4763.391,6.194329
4769.177,6.146009
4774.962,6.086678
4780.748,6.061102
4786.533,6.046354
4792.319,6.035604
4798.104,6.025027
4803.89,5.995373
4809.675,5.958861
4815.46,5.91307
4821.246,5.869594
4827.032,5.84528
4832.817,5.814619
4838.603,5.784811
4844.388,5.732527
4850.174,5.680486
4855.959,5.636594
4861.745,5.601107
4867.53,5.579597
4873.315,5.585564
4879.101,5.601975
4884.887,5.622411
4890.672,5.647054
4896.458,5.66632
4902.243,5.683856
4908.028,5.692598
4913.814,5.701296
4919.6,5.700335
4925.385,5.696457
4931.17,5.695654
4936.956,5.696248
4942.742,5.68168
4948.527,5.647652
4954.313,5.574638
4960.098,5.474816
4965.883,5.451539
4971.669,5.498584
4977.455,5.522048
4983.24,5.555574
4989.025,5.598192
4994.811,5.650516
5000.597,5.715096
5006.382,5.762094
5012.167,5.773584
5017.953,5.775765
5023.738,5.794079
5029.524,5.817328
5035.31,5.828836
5041.095,5.833147
5046.88,5.837864
5052.666,5.824569
5058.451,5.796194
5064.237,5.776487
5070.022,5.783516
5075.808,5.788554
5081.593,5.781709
5087.379,5.766668
5093.165,5.756896
5098.95,5.75168
5104.735,5.761292
5110.521,5.782024
5116.307,5.79653
5122.092,5.807425
5127.877,5.823403
5133.663,5.833318
5139.448,5.826488
5145.234,5.808453
5151.02,5.780676
5156.805,5.763171
5162.59,5.763886
5168.376,5.772995
5174.161,5.765669
5179.947,5.764269
5185.732,5.763428
5191.518,5.76215
5197.303,5.780087
5203.089,5.779978
5208.874,5.790257
5214.66,5.779664
5220.445,5.786952
5226.231,5.806464
5232.016,5.812891
5237.802,5.816471
5243.587,5.840714
5249.373,5.85444
5255.158,5.86666
5260.944,5.865861
5266.729,5.873267
5272.515,5.851564
5278.3,5.853725
5284.086,5.871416
5289.871,5.874475
5295.657,5.848896
5301.442,5.826986
5307.228,5.805673
5313.013,5.823347
5318.799,5.899101
5324.584,5.939362
5330.37,5.942053
5336.155,5.922915
5341.94,5.876856
5347.726,5.820235
5353.512,5.767673
5359.297,5.707313
5365.083,5.672164
5370.868,5.628074
5376.654,5.611625
5382.439,5.596557
5388.225,5.579258
5394.01,5.555554
5399.796,5.506299
5405.581,5.469914
5411.367,5.41196
5417.152,5.333024
5422.938,5.302411
5428.723,5.291888
5434.509,5.2782
5440.294,5.275508
5446.08,5.268073
5451.865,5.249559
5457.65,5.240273
5463.436,5.235156
5469.222,5.217545
5475.007,5.202391
5480.792,5.157075
5486.578,5.126328
5492.363,5.125461
5498.149,5.124071
5503.935,5.144747
5509.72,5.158556
5515.505,5.176457
5521.291,5.185389
5527.077,5.180905
5532.862,5.178131
5538.647,5.171482
5544.433,5.155443
5550.219,5.152318
5556.004,5.151544
5561.79,5.174066
5567.575,5.203803
5573.36,5.255375
5579.146,5.313603
5584.932,5.356972
5590.717,5.367179
5596.502,5.350482
5602.288,5.318143
5608.073,5.272537
5613.859,5.223894
5619.645,5.178008
5625.43,5.13769
5631.215,5.099858
5637.001,5.05694
5642.786,4.989824
5648.572,4.876549
5654.357,4.721951
5660.143,4.605205
5665.929,4.595863
5671.714,4.659263
5677.5,4.750075
5683.285,4.825895
5689.07,4.880123
5694.856,4.943528
5700.642,5.035803
5706.427,5.115143
5712.212,5.159437
5717.998,5.143894
5723.783,5.033092
5729.569,4.846006
5735.354,4.803322
5741.14,4.777394
5746.925,4.703482
5752.711,4.625403
5758.496,4.554793
5764.282,4.494492
5770.067,4.454522
5775.853,4.444399
5781.638,4.460044
5787.424,4.494979
5793.209,4.528269
5798.995,4.559404
5804.78,4.601118
5810.566,4.649709
5816.352,4.691196
5822.137,4.743984
5827.922,4.80888
5833.708,4.880947
5839.493,4.970624
5845.279,5.080564
5851.064,5.245388
5856.85,5.473631
5862.635,5.776571
5868.421,6.109297
5874.206,6.430681
5879.992,6.722485
5885.777,6.964509
5891.563,7.166581
5897.348,7.33756
5903.134,7.49975
5908.919,7.658463
5914.705,7.801291
5920.49,7.934675
5926.276,8.068468
5932.061,8.204744
5937.847,8.330187
5943.632,8.456608
5949.418,8.580337
5955.203,8.722661
5960.989,8.910074
5966.774,9.131568
5972.56,9.363391
5978.345,9.577401
5984.131,9.770152
5989.916,9.948338
5995.702,10.11686
6001.487,10.26598
6007.272,10.41045
6013.058,10.5565
6018.844,10.70454
6024.629,10.85813
6030.415,10.98063
6036.2,11.09447
6041.985,11.18993
6047.771,11.28209
6053.557,11.37381
6059.342,11.44868
6065.128,11.5078
6070.913,11.5703
6076.698,11.62506
6082.484,11.69036
6088.27,11.73319
6094.055,11.736
6099.841,11.64738
6105.626,11.53983
6111.412,11.57653
6117.197,11.69557
6122.982,11.80485
6128.768,11.90232
6134.554,11.97786
6140.339,12.06111
6146.125,12.12283
6151.91,12.1757
6157.695,12.22499
6163.481,12.27035
6169.267,12.32391
6175.052,12.37289
6180.837,12.40719
6186.623,12.43638
6192.408,12.45345
6198.194,12.48322
6203.979,12.50463
6209.765,12.52948
6215.551,12.55695
6221.336,12.57993
6227.121,12.60193
6232.907,12.63007
6238.692,12.63662
6244.478,12.64716
6250.264,12.65482
6256.049,12.6581
6261.834,12.66563
6267.62,12.68165
6273.405,12.68636
6279.191,12.69781
6284.977,12.70701
6290.762,12.71488
6296.547,12.71593
6302.333,12.72709
6308.118,12.73668
6313.904,12.73873
6319.689,12.73122
6325.475,12.71414
6331.26,12.69375
6337.046,12.67103
6342.831,12.64856
6348.617,12.61653
6354.402,12.57906
6360.188,12.54974
6365.974,12.49619
6371.759,12.41785
6377.544,12.36194
6383.33,12.34119
6389.115,12.32143
6394.901,12.30358
6400.687,12.26201
6406.472,12.18245
6412.257,12.08891
6418.043,12.0177
6423.828,11.99048
6429.614,11.96743
6435.399,11.93043
6441.185,11.85317
6446.97,11.75164
6452.756,11.63495
6458.541,11.51099
6464.327,11.31421
6470.112,11.01383
6475.897,10.6451
6481.684,10.40326
6487.469,10.43782
6493.254,10.58527
6499.04,10.74351
6504.825,10.88078
6510.61,10.99797
6516.396,11.07254
6522.182,11.14085
6527.967,11.20165
6533.753,11.25793
6539.538,11.29692
6545.324,11.34104
6551.109,11.38005
6556.895,11.41834
6562.68,11.45196
6568.466,11.50444
6574.251,11.55797
6580.037,11.59697
6585.822,11.61678
6591.607,11.6301
6597.393,11.6437
6603.179,11.64535
6608.964,11.64913
6614.75,11.64643
6620.535,11.64463
6626.32,11.64213
6632.106,11.62067
6637.892,11.60684
6643.677,11.58316
6649.463,11.56049
6655.248,11.52657
6661.034,11.49767
6666.819,11.4523
6672.604,11.42397
6678.39,11.38313
6684.176,11.3536
6689.961,11.29845
6695.747,11.24956
6701.532,11.18801
6707.317,11.12625
6713.103,11.05496
6718.889,10.98388
6724.674,10.92257
6730.459,10.87431
6736.245,10.82126
6742.03,10.7642
6747.816,10.70233
6753.602,10.65532
6759.387,10.59689
6765.173,10.55143
6770.958,10.47058
6776.743,10.38227
6782.529,10.2762
6788.314,10.16493
6794.1,10.03703
6799.886,9.904867
6805.671,9.783326
6811.457,9.673329
6817.242,9.544581
6823.027,9.419672
6828.813,9.273779
6834.599,9.153242
6840.384,9.094002
6846.169,9.045572
6851.955,8.998282
6857.74,8.944298
6863.526,8.898063
6869.312,8.836723
6875.097,8.775647
6880.882,8.701997
6886.668,8.622103
6892.453,8.530704
6898.239,8.460105
6904.024,8.40731
6909.81,8.372614
6915.596,8.317134
6921.381,8.241747
6927.166,8.147842
6932.952,8.036039
6938.737,7.902244
6944.523,7.775488
6950.309,7.699288
6956.094,7.684988
6961.879,7.700009
6967.665,7.708124
6973.45,7.732707
6979.236,7.72904
6985.021,7.712003
6990.807,7.675189
6996.592,7.633413
7002.378,7.56823
7008.163,7.501468
7013.949,7.445701
7019.734,7.388658
7025.52,7.375781
7031.305,7.415704
7037.091,7.450195
7042.876,7.458261
7048.662,7.395683
7054.447,7.241931
7060.232,7.07788
7066.019,7.080159
7071.804,7.28856
7077.589,7.552098
7083.375,7.742075
7089.16,7.83357
7094.946,7.910812
7100.731,7.981495
7106.517,8.120142
7112.302,8.25032
7118.088,8.404748
7123.873,8.489542
7129.659,8.52009
7135.444,8.464479
7141.229,8.369845
7147.015,8.225831
7152.801,7.993858
7158.586,7.589024
7164.372,7.009698
7170.157,6.594451
7175.942,6.62001
7181.729,7.012096
7187.514,7.413986
7193.299,7.820303
7199.085,8.168821
7204.87,8.524964
7210.655,8.796781
7216.441,9.04049
7222.227,9.306353
7228.012,9.620386
7233.798,9.933187
7239.583,10.17236
7245.369,10.44836
7251.154,10.7013
7256.939,10.95766
7262.725,11.21105
7268.511,11.44553
7274.296,11.70063
7280.082,11.92021
7285.867,12.14642
7291.652,12.35221
7297.438,12.56714
7303.224,12.76182
7309.009,12.99919
7314.794,13.19682
7320.58,13.37447
7326.365,13.55572
7332.151,13.68104
7337.937,13.81316
7343.722,13.92784
7349.508,14.00122
7355.293,14.08539
7361.079,14.13143
7366.864,14.19773
7372.649,14.23752
7378.435,14.29604
7384.221,14.34252
7390.006,14.37619
7395.792,14.40012
7401.577,14.43192
7407.362,14.4649
7413.148,14.4862
7418.934,14.50891
7424.719,14.53269
7430.504,14.54421
7436.29,14.55876
7442.075,14.57764
7447.861,14.60304
7453.646,14.61358
7459.432,14.64687
7465.218,14.65361
7471.003,14.66245
7476.788,14.66918
7482.574,14.66722
7488.359,14.66898
7494.145,14.65979
7499.931,14.64401
7505.716,14.65207
7511.501,14.64312
7517.287,14.64556
7523.072,14.64172
7528.858,14.63597
7534.644,14.62632
7540.429,14.60947
7546.214,14.59439
7552.0,14.58282
7557.785,14.56198
7563.571,14.55296
7569.356,14.5318
7575.142,14.51517
7580.927,14.50187
7586.713,14.48067
7592.498,14.4643
7598.284,14.43437
7604.069,14.42178
7609.854,14.39361
7615.641,14.35743
7621.426,14.32574
7627.211,14.28709
7632.997,14.25329
7638.782,14.2094
7644.568,14.17561
7650.354,14.15149
7656.139,14.12376
7661.924,14.09014
7667.71,14.06537
7673.495,14.03835
7679.281,14.02356
7685.066,14.01246
7690.852,13.99961
7696.637,13.98175
7702.423,13.94919
7708.208,13.93657
7713.994,13.91601
7719.779,13.89346
7725.564,13.879
7731.35,13.8488
7737.136,13.83305
7742.921,13.82487
7748.707,13.80337
7754.492,13.78164
7760.277,13.74928
7766.063,13.71349
7771.849,13.69181
7777.634,13.68724
7783.42,13.67885
7789.205,13.66231
7794.991,13.65489
7800.776,13.63444
7806.562,13.60027
7812.347,13.57235
7818.133,13.55606
7823.918,13.53026
7829.704,13.49798
7835.489,13.47125
7841.274,13.43442
7847.06,13.40516
7852.846,13.36163
7858.631,13.31361
7864.417,13.27304
7870.202,13.23513
7875.987,13.17624
7881.773,13.12111
7887.559,13.07452
7893.344,13.00707
7899.13,12.96063
7904.915,12.90412
7910.7,12.83426
7916.486,12.772
7922.271,12.70683
7928.057,12.64396
7933.843,12.57526
7939.628,12.48949
7945.414,12.41547
7951.199,12.34019
7956.984,12.25633
7962.77,12.15478
7968.556,12.08117
7974.341,11.9922
7980.126,11.88905
7985.912,11.79569
7991.697,11.68895
7997.483,11.606
8003.269,11.49018
8009.054,11.39349
8014.839,11.26942
8020.625,11.15141
8026.41,11.03974
8032.196,10.89995
8037.981,10.78761
8043.767,10.65059
8049.553,10.51693
8055.338,10.37152
8061.124,10.22574
8066.909,10.08779
8072.694,9.942047
8078.48,9.78553
8084.266,9.638537
8090.051,9.482745
8095.836,9.330054
8101.622,9.168406
8107.407,9.003808
8113.192,8.841325
8118.979,8.648453
8124.764,8.492702
8130.55,8.295304
8136.335,8.118344
8142.12,7.934787
8147.906,7.74581
8153.691,7.572233
8159.477,7.39315
8165.263,7.214271
8171.048,7.028179
8176.833,6.843897
8182.619,6.677751
8188.404,6.541291
8194.189,6.427711
8199.976,6.327603
8205.761,6.243647
8211.546,6.187054
8217.332,6.158218
8223.117,6.158464
8228.902,6.16292
8234.688,6.188766
8240.474,6.215349
8246.259,6.224586
8252.045,6.251456
8257.83,6.301627
8263.616,6.353006
8269.401,6.430027
8275.187,6.51367
8280.973,6.612388
8286.758,6.735145
8292.543,6.863125
8298.329,6.993176
8304.114,7.117543
8309.899,7.252452
8315.686,7.388292
8321.471,7.500195
8327.256,7.648256
8333.042,7.773306
8338.827,7.919942
8344.612,8.092713
8350.398,8.265545
8356.184,8.449134
8361.969,8.646727
8367.755,8.808902
8373.54,8.991861
8379.325,9.148723
8385.111,9.318979
8390.896,9.436199
8396.683,9.526276
8402.468,9.549607
8408.253,9.543662
8414.039,9.505238
8419.824,9.475648
8425.609,9.470495
8431.396,9.528678
8437.181,9.649535
8442.966,9.830276
8448.752,10.03919
8454.537,10.22337
8460.322,10.38422
8466.108,10.5212
8471.894,10.63709
8477.679,10.81238
8483.465,10.97487
8489.25,11.16462
8495.035,11.30837
8500.821,11.40424
8506.606,11.46296
8512.392,11.49595
8518.178,11.54852
8523.963,11.62118
8529.748,11.68312
8535.534,11.6819
8541.319,11.62105
8547.105,11.49292
8552.891,11.29133
8558.676,11.06044
8564.462,10.90275
8570.247,11.02238
8576.032,11.25056
8581.818,11.51394
8587.604,11.80475
8593.389,12.12418
8599.175,12.43493
8604.96,12.75499
8610.745,13.05297
8616.531,13.31092
8622.316,13.56989
8628.102,13.78126
8633.888,13.96548
8639.673,14.13369
8645.458,14.29635
8651.244,14.44629
8657.029,14.57973
8662.814,14.70049
8668.601,14.8083
8674.386,14.91541
8680.172,15.03342
8685.957,15.133
8691.742,15.23987
8697.528,15.36442
8703.313,15.48613
8709.099,15.5841
8714.885,15.71504
8720.67,15.82216
8726.455,15.93247
8732.241,16.07574
8738.026,16.17872
8743.812,16.29048
8749.598,16.40532
8755.383,16.51906
8761.168,16.60051
8766.954,16.68263
8772.739,16.76481
8778.524,16.83066
8784.311,16.89239
8790.096,16.9634
8795.881,16.98892
8801.667,17.04953
8807.452,17.10126
8813.237,17.13472
8819.023,17.14102
8824.809,17.16913
8830.595,17.18702
8836.38,17.21572
8842.165,17.23383
8847.951,17.24119
8853.736,17.27028
8859.521,17.27233
8865.308,17.29925
8871.093,17.29949
8876.878,17.29551
8882.664,17.30408
8888.449,17.30618
8894.234,17.30506
8900.021,17.32079
8905.806,17.30698
8911.591,17.29658
8917.377,17.28221
8923.162,17.28289
8928.947,17.27292
8934.733,17.26384
8940.519,17.26937
8946.304,17.26537
8952.09,17.26919
8957.875,17.25657
8963.661,17.2759
8969.446,17.28919
8975.231,17.28803
8981.018,17.31045
8986.803,17.30435
8992.588,17.33448
8998.374,17.33655
9004.159,17.37051
9009.944,17.37109
9015.73,17.40848
9021.516,17.40641
9027.301,17.42047
9033.087,17.44924
9038.872,17.44177
9044.657,17.45609
9050.443,17.47557
9056.229,17.48003
9062.014,17.50816
9067.8,17.49648
9073.585,17.49211
9079.37,17.51273
9085.156,17.54188
9090.941,17.51953
9096.727,17.53363
9102.513,17.55454
9108.298,17.54439
9114.084,17.55058
9119.869,17.55598
9125.654,17.53308
9131.44,17.53641
9137.226,17.54774
9143.011,17.52122
9148.797,17.51944
9154.582,17.53508
9160.367,17.52018
9166.153,17.49485
9171.938,17.4796
9177.724,17.50635
9183.51,17.4694
9189.295,17.46758
9195.08,17.47445
9200.866,17.46262
9206.651,17.44921
9212.437,17.44482
9218.223,17.43799
9224.008,17.42983
9229.793,17.42515
9235.579,17.41248
9241.364,17.39604
9247.15,17.39912
9252.936,17.40402
9258.721,17.36963
9264.507,17.38174
9270.292,17.37318
9276.077,17.35712
9281.863,17.3709
9287.648,17.34233
9293.434,17.35469
9299.22,17.33086
9305.005,17.36286
9310.79,17.36307
9316.576,17.36345
9322.361,17.37734
9328.146,17.37576
9333.933,17.37067
9339.718,17.39046
9345.503,17.38417
9351.289,17.37059
9357.074,17.33157
9362.859,17.34597
9368.646,17.34156
9374.431,17.30483
9380.217,17.27826
9386.002,17.28317
9391.787,17.24748
9397.573,17.21976
9403.358,17.20997
9409.144,17.20799
9414.93,17.17677
9420.715,17.15574
9426.5,17.13004
9432.286,17.10074
9438.071,17.08171
9443.856,17.05634
9449.643,17.01541
9455.428,16.9968
9461.213,16.96573
9466.999,16.95916
9472.784,16.89261
9478.569,16.90377
9484.355,16.89025
9490.141,16.85236
9495.926,16.86313
9501.712,16.85413
9507.497,16.82237
9513.282,16.82398
9519.068,16.80486
9524.854,16.79495
9530.64,16.76693
9536.425,16.77339
9542.21,16.73811
9547.996,16.71034
9553.781,16.68582
9559.566,16.65834
9565.353,16.63235
9571.138,16.62344
9576.923,16.58058
9582.709,16.56764
9588.494,16.56971
9594.279,16.56731
9600.065,16.54243
9605.851,16.58529
9611.636,16.59834
9617.422,16.64675
9623.207,16.67736
9628.992,16.71247
9634.778,16.75763
9640.563,16.77508
9646.349,16.85049
9652.135,16.88021
9657.92,16.94584
9663.706,16.973
9669.491,17.02922
9675.276,17.06381
9681.063,17.11729
9686.848,17.17698
9692.633,17.20488
9698.419,17.23509
9704.204,17.28179
9709.989,17.34472
9715.775,17.40792
9721.561,17.43506
9727.346,17.48818
9733.132,17.54775
9738.917,17.59454
9744.702,17.63585
9750.488,17.65429
9756.273,17.71354
9762.059,17.7248
9767.845,17.7197
9773.63,17.72234
9779.415,17.76605
9785.201,17.75909
9790.986,17.78209
9796.771,17.77299
9802.558,17.76649
9808.343,17.7784
9814.129,17.78628
9819.914,17.7702
9825.699,17.76205
9831.485,17.78392
9837.271,17.83924
9843.056,17.83385
9848.842,17.87348
9854.627,17.9314
9860.412,18.01364
9866.198,18.03186
9871.983,18.08522
9877.769,18.15108
9883.555,18.21119
9889.34,18.26166
9895.125,18.29837
9900.911,18.30109
9906.696,18.35696
9912.481,18.37552
9918.268,18.45063
9924.053,18.44222
9929.838,18.4925
9935.624,18.4958
9941.409,18.5786
9947.195,18.58612
9952.98,18.60736
9958.766,18.66006
9964.552,18.66334
9970.337,18.73323
9976.122,18.72117
9981.908,18.72691
9987.693,18.75107
9993.479,18.80203
9999.265,18.81507
10005.05,18.81178
10010.83,18.84606
10016.62,18.87593
10022.41,18.85674
10028.19,18.88884
10033.98,18.94451
10039.76,18.95786
10045.55,18.98192
10051.33,18.9971
10057.12,19.02923
10062.9,19.04074
10068.69,19.06397
10074.48,19.1026
10080.26,19.10904
10086.05,19.11277
10091.83,19.11305
10097.62,19.11126
10103.4,19.11943
10109.19,19.13448
10114.97,19.13313
10120.76,19.15994
10126.54,19.19355
10132.33,19.16128
10138.12,19.20168
10143.9,19.18407
10149.69,19.20841
10155.47,19.19872
10161.26,19.20764
10167.04,19.19985
10172.83,19.22463
10178.61,19.18954
10184.4,19.24873
10190.19,19.2256
10195.97,19.24848
10201.76,19.24554
10207.54,19.2399
10213.33,19.25856
10219.11,19.25425
10224.9,19.26452
10230.68,19.23791
10236.47,19.24285
10242.25,19.21357
10248.04,19.23188
10253.83,19.23125
10259.61,19.25801
10265.4,19.22476
10271.18,19.24686
10276.97,19.23337
10282.75,19.19138
10288.54,19.21668
10294.32,19.23849
10300.11,19.23792
10305.9,19.25784
10311.68,19.20615
10317.47,19.21313
10323.25,19.26208
10329.04,19.20134
10334.82,19.2149
10340.61,19.22499
10346.39,19.17765
10352.18,19.22005
10357.96,19.22298
10363.75,19.20815
10369.54,19.20435
10375.32,19.19317
10381.11,19.18631
10386.89,19.20319
10392.68,19.14562
10398.46,19.13404
10404.25,19.17356
10410.03,19.14643
10415.82,19.10159
10421.61,19.13949
10427.39,19.12305
10433.18,19.04756
10438.96,19.06195
10444.75,19.0924
10450.53,19.01722
10456.32,19.04679
10462.1,19.01595
10467.89,19.00709
10473.67,18.94331
10479.46,18.9508
10485.25,18.9142
10491.03,18.90095
10496.82,18.81417
10502.6,18.78151
10508.39,18.78424
10514.17,18.74784
10519.96,18.68194
10525.74,18.64583
10531.53,18.5995
10537.32,18.52225
10543.1,18.46927
10548.89,18.40251
10554.67,18.36463
10560.46,18.22368
10566.24,18.19665
10572.03,18.09177
10577.81,17.92075
10583.6,17.91969
10589.38,17.79985
10595.17,17.68895
10600.96,17.57726
10606.74,17.49768
10612.53,17.34929
10618.31,17.23335
10624.1,17.06693
10629.88,16.97658
10635.67,16.77394
10641.45,16.68926
10647.24,16.48176
10653.03,16.38825
10658.81,16.2038
10664.6,16.0718
10670.38,15.97588
10676.17,15.83789
10681.95,15.73756
10687.74,15.60669
10693.52,15.53512
10699.31,15.49865
10705.09,15.44424
10710.88,15.41072
10716.67,15.33228
10722.45,15.36909
10728.24,15.32014
10734.02,15.35942
10739.81,15.35868
10745.59,15.43451
10751.38,15.47558
10757.16,15.59062
10762.95,15.65594
10768.74,15.69701
10774.52,15.7651
10780.31,15.9155
10786.09,15.94543
10791.88,16.04098
10797.66,16.11946
10803.45,16.21612
10809.23,16.37849
10815.02,16.48609
10820.8,16.54213
10826.59,16.70751
10832.38,16.81608
10838.16,16.98238
10843.95,17.01022
10849.73,17.17937
10855.52,17.2283
10861.3,17.37698
10867.09,17.51981
10872.87,17.64708
10878.66,17.78597
10884.45,17.79801
10890.23,17.88245
10896.02,17.94592
10901.8,18.07846
10907.59,18.21272
10913.37,18.31289
10919.16,18.34252
10924.94,18.44763
10930.73,18.52619
10936.51,18.6503
10942.3,18.6573
10948.09,18.68599
10953.87,18.84464
10959.66,18.95037
10965.44,19.01
10971.23,19.1523
10977.01,19.10102
10982.8,19.19818
10988.58,19.19596
10994.37,19.32783
11000.16,19.35042
11005.94,19.38992
11011.73,19.45733
11017.51,19.49998
11023.3,19.56342
11029.08,19.5283
11034.87,19.57553
11040.65,19.66795
11046.44,19.63304
11052.22,19.69769
11058.01,19.70304
11063.79,19.7518
11069.58,19.79016
11075.37,19.8229
11081.15,19.8486
11086.94,19.7829
11092.72,19.77245
11098.51,19.83626
11104.29,19.8357
11110.08,19.83077
11115.87,19.83022
11121.65,19.87926
11127.44,19.83531
11133.22,19.78719
11139.01,19.86016
11144.79,19.95107
11150.58,19.93527
11156.36,19.99805
11162.15,20.08217
11167.93,19.99271
11173.72,20.05345
11179.5,20.1128
11185.29,20.11524
11191.08,20.16101
11196.86,20.24642
11202.65,20.2717
11208.43,20.32303
11214.22,20.36769
11220.0,20.39459
11225.79,20.37326
11231.58,20.40176
11237.36,20.46227
11243.15,20.40785
11248.93,20.53311
11254.72,20.59979
11260.5,20.58245
11266.29,20.55659
11272.07,20.57899
11277.86,20.59464
11283.64,20.68778
11289.43,20.67676
11295.21,20.61834
11301.0,20.66276
11306.79,20.78093
11312.57,20.76834
11318.36,20.70773
11324.14,20.77514
11329.93,20.75463
11335.71,20.7698
11341.5,20.79125
11347.28,20.866
11353.07,20.93352
11358.86,20.77941
11364.64,20.83326
11370.43,20.83832
11376.21,20.89545
11382.0,20.87953
11387.78,20.89626
11393.57,20.98459
11399.35,20.9276
11405.14,20.97561
11410.92,21.03218
11416.71,20.98872
11422.5,20.97701
11428.28,21.03386
11434.07,21.076
11439.85,21.04976
11445.64,21.01508
11451.42,21.14624
11457.21,21.07826
11462.99,21.10455
11468.78,21.11805
11474.57,21.11135
11480.35,21.17957
11486.14,21.14142
11491.92,21.16996
11497.71,21.04369
11503.49,21.20336
11509.28,21.31008
11515.06,21.27194
11520.85,21.26369
11526.63,21.27645
11532.42,21.34827
11538.21,21.37249
11543.99,21.35177
11549.78,21.38076
11555.56,21.25637
11561.35,21.30091
11567.13,21.26051
11572.92,21.32066
11578.7,21.35969
11584.49,21.44086
11590.28,21.40973
11596.06,21.47286
11601.85,21.48434
11607.63,21.32409
11613.42,21.39566
11619.2,21.46213
11624.99,21.55708
11630.77,21.42663
11636.56,21.51253
11642.34,21.48511
11648.13,21.44663
11653.92,21.50836
11659.7,21.54344
11665.49,21.46821
11671.27,21.54881
11677.06,21.53304
11682.84,21.4656
11688.63,21.52677
11694.41,21.51458
11700.2,21.55461
11705.99,21.54254
11711.77,21.48914
11717.56,21.53244
11723.34,21.48075
11729.13,21.46072
11734.91,21.44176
11740.7,21.53905
11746.48,21.56734
11752.27,21.5945
11758.05,21.5117
11763.84,21.62742
11769.63,21.52234
11775.41,21.53176
11781.2,21.5578
11786.98,21.38291
11792.77,21.40618
11798.55,21.45793
11804.34,21.49727
11810.12,21.50974
11815.91,21.5949
11821.7,21.49704
11827.48,21.51551
11833.27,21.58084
11839.05,21.41595
11844.84,21.5478
11850.62,21.57846
11856.41,21.51649
11862.19,21.50131
11867.98,21.78419
11873.76,21.602
11879.55,21.66467
11885.34,21.55487
11891.12,21.81873
11896.91,21.72436
11902.69,21.78078
11908.48,21.85485
11914.26,21.73378
11920.05,21.9773
11925.83,21.83019
11931.62,21.75321
11937.41,21.86689
11943.19,21.88025
11948.98,21.864
11954.76,21.86545
11960.55,22.01889
11966.33,21.97612
11972.12,21.74971
11977.9,21.91871
11983.69,21.87339
11989.47,21.94625
11995.26,21.77951
11999.12,22.04872