File: Data/NIR/S0040HDPE_5.csv
Wavenumber,Intensity
3999.706,3.809461
4005.491,3.798464
4011.277,3.802631
4017.062,3.793189
4022.848,3.786242
4028.633,3.796069
4034.419,3.802238
4040.204,3.806578
4045.99,3.815178
4051.775,3.808767
4057.561,3.815035
4063.346,3.814755
4069.132,3.816279
4074.917,3.818327
4080.703,3.819865
4086.488,3.80848
4092.274,3.82049
4098.059,3.811309
4103.845,3.820226
4109.63,3.817738
4115.416,3.822898
4121.201,3.823692
4126.987,3.826116
4132.772,3.826606
4138.558,3.825803
4144.343,3.830588
4150.129,3.829577
4155.914,3.830552
4161.7,3.837217
4167.485,3.840972
4173.271,3.845371
4179.056,3.851895
4184.842,3.854611
4190.627,3.863412
4196.413,3.8722
4202.198,3.885033
4207.983,3.897303
4213.769,3.905977
4219.555,3.915025
4225.34,3.919664
4231.125,3.931628
4236.911,3.941896
4242.697,3.932535
4248.482,3.923952
4254.268,3.924641
4260.053,3.94495
4265.838,3.958759
4271.624,3.968968
4277.41,3.974466
4283.195,3.986078
4288.98,3.987642
4294.766,3.998505
4300.552,3.996312
4306.337,3.9863
4312.123,3.969277
4317.908,3.952288
4323.693,3.94593
4329.479,3.955617
4335.265,3.959789
4341.05,3.96941
4346.835,3.976566
4352.621,3.997265
4358.407,4.009789
4364.192,4.01979
4369.978,4.0295
4375.763,4.04705
4381.548,4.068143
4387.334,4.09522
4393.12,4.142161
4398.905,4.188989
4404.69,4.261011
4410.476,4.340535
4416.262,4.420289
4422.047,4.480596
4427.833,4.539082
4433.618,4.579994
4439.403,4.635849
4445.189,4.694601
4450.975,4.767073
4456.76,4.843388
4462.545,4.907486
4468.331,4.957478
4474.116,4.993561
4479.902,5.060072
4485.688,5.137614
4491.473,5.212762
4497.258,5.280898
4503.044,5.355075
4508.83,5.422558
4514.615,5.494284
4520.4,5.565993
4526.186,5.622382
4531.971,5.687204
4537.757,5.76088
4543.542,5.82526
4549.328,5.897722
4555.113,5.977109
4560.899,6.057996
4566.685,6.124237
4572.47,6.188634
4578.255,6.233631
4584.041,6.273733
4589.826,6.306426
4595.612,6.331316
4601.397,6.340361
4607.183,6.367521
4612.968,6.400485
4618.754,6.427225
4624.539,6.463571
4630.325,6.486001
4636.11,6.49789
4641.896,6.507576
4647.681,6.508636
4653.467,6.48429
4659.252,6.433842
4665.038,6.361875
4670.823,6.371474
4676.609,6.464901
4682.394,6.548408
4688.18,6.595346
4693.965,6.606649
4699.751,6.609224
4705.536,6.597266
4711.322,6.564559
4717.107,6.526197
4722.893,6.502483
4728.678,6.479481
4734.464,6.478066
4740.249,6.472361
4746.035,6.460845
4751.82,6.442325
4757.605,6.418265
4763.391,6.380407
4769.177,6.330246
4774.962,6.261776
4780.748,6.230261
4786.533,6.222065
4792.319,6.209598
4798.104,6.191318
4803.89,6.162833
4809.675,6.125976
4815.46,6.073806
4821.246,6.028726
4827.032,5.997889
4832.817,5.962764
4838.603,5.923093
4844.388,5.87152
4850.174,5.809659
4855.959,5.757612
4861.745,5.718854
4867.53,5.68971
4873.315,5.694055
4879.101,5.720171
4884.887,5.745852
4890.672,5.767645
4896.458,5.794225
4902.243,5.807068
4908.028,5.82514
4913.814,5.829234
4919.6,5.828905
4925.385,5.824801
4931.17,5.820703
4936.956,5.825543
4942.742,5.812925
4948.527,5.76747
4954.313,5.674929
4960.098,5.558591
4965.883,5.532987
4971.669,5.586369
4977.455,5.624144
4983.24,5.658502
4989.025,5.711042
4994.811,5.770131
5000.597,5.84662
5006.382,5.895756
5012.167,5.912811
5017.953,5.910661
5023.738,5.935298
5029.524,5.965705
5035.31,5.974202
5041.095,5.986288
5046.88,5.987575
5052.666,5.97131
5058.451,5.932243
5064.237,5.919517
5070.022,5.921105
5075.808,5.924743
5081.593,5.917552
5087.379,5.902169
5093.165,5.886993
5098.95,5.880966
5104.735,5.891554
5110.521,5.914771
5116.307,5.928925
5122.092,5.947003
5127.877,5.961775
5133.663,5.973569
5139.448,5.966077
5145.234,5.944782
5151.02,5.91606
5156.805,5.894945
5162.59,5.891766
5168.376,5.897928
5174.161,5.898761
5179.947,5.890851
5185.732,5.888875
5191.518,5.888704
5197.303,5.909135
5203.089,5.911133
5208.874,5.923571
5214.66,5.907572
5220.445,5.913683
5226.231,5.935975
5232.016,5.938609
5237.802,5.949921
5243.587,5.979571
5249.373,5.997948
5255.158,6.011977
5260.944,6.013285
5266.729,6.008784
5272.515,5.996238
5278.3,5.994023
5284.086,6.007492
5289.871,6.014161
5295.657,5.986283
5301.442,5.962464
5307.228,5.936216
5313.013,5.955684
5318.799,6.05032
5324.584,6.090992
5330.37,6.092253
5336.155,6.074599
5341.94,6.017025
5347.726,5.95547
5353.512,5.88762
5359.297,5.818623
5365.083,5.770736
5370.868,5.71515
5376.654,5.70198
5382.439,5.685021
5388.225,5.666736
5394.01,5.633275
5399.796,5.573928
5405.581,5.525231
5411.367,5.459527
5417.152,5.350635
5422.938,5.314819
5428.723,5.302343
5434.509,5.287713
5440.294,5.286041
5446.08,5.272709
5451.865,5.245597
5457.65,5.232835
5463.436,5.227559
5469.222,5.207021
5475.007,5.182808
5480.792,5.132763
5486.578,5.091614
5492.363,5.088003
5498.149,5.093288
5503.935,5.108797
5509.72,5.12974
5515.505,5.152098
5521.291,5.161724
5527.077,5.151938
5532.862,5.153529
5538.647,5.141954
5544.433,5.130946
5550.219,5.115823
5556.004,5.119385
5561.79,5.143796
5567.575,5.185244
5573.36,5.254365
5579.146,5.323229
5584.932,5.376701
5590.717,5.386653
5596.502,5.36948
5602.288,5.326997
5608.073,5.266836
5613.859,5.204799
5619.645,5.15011
5625.43,5.095028
5631.215,5.045772
5637.001,4.987634
5642.786,4.907179
5648.572,4.76224
5654.357,4.559695
5660.143,4.415175
5665.929,4.401245
5671.714,4.483859
5677.5,4.59407
5683.285,4.689898
5689.07,4.759343
5694.856,4.845724
5700.642,4.955632
5706.427,5.062692
5712.212,5.11759
5717.998,5.100054
5723.783,4.954031
5729.569,4.714128
5735.354,4.658111
5741.14,4.624911
5746.925,4.532299
5752.711,4.435721
5758.496,4.356428
5764.282,4.293311
5770.067,4.249233
5775.853,4.23419
5781.638,4.259048
5787.424,4.291115
5793.209,4.326229
5798.995,4.368463
5804.78,4.410017
5810.566,4.46342
5816.352,4.516097
5822.137,4.583587
5827.922,4.664524
5833.708,4.765993
5839.493,4.872095
5845.279,5.015841
5851.064,5.225887
5856.85,5.511935
5862.635,5.881683
5868.421,6.266382
5874.206,6.637899
5879.992,6.95856
5885.777,7.219773
5891.563,7.43401
5897.348,7.618071
5903.134,7.791668
5908.919,7.952927
5914.705,8.097663
5920.49,8.236683
5926.276,8.369521
5932.061,8.502913
5937.847,8.634958
5943.632,8.754379
5949.418,8.878125
5955.203,9.021185
5960.989,9.204209
5966.774,9.426078
5972.56,9.646832
5978.345,9.850348
5984.131,10.0366
5989.916,10.21078
5995.702,10.36354
6001.487,10.5091
6007.272,10.64611
6013.058,10.78266
6018.844,10.92391
6024.629,11.05787
6030.415,11.17742
6036.2,11.2858
6041.985,11.37618
6047.771,11.46269
6053.557,11.54199
6059.342,11.61697
6065.128,11.67098
6070.913,11.72677
6076.698,11.78974
6082.484,11.83934
6088.27,11.88493
6094.055,11.88685
6099.841,11.80457
6105.626,11.71533
6111.412,11.74361
6117.197,11.85972
6122.982,11.9612
6128.768,12.04403
6134.554,12.12332
6140.339,12.19632
6146.125,12.25032
6151.91,12.30315
6157.695,12.35152
6163.481,12.39722
6169.267,12.44412
6175.052,12.49515
6180.837,12.52131
6186.623,12.54132
6192.408,12.56667
6198.194,12.594
6203.979,12.60845
6209.765,12.64029
6215.551,12.66053
6221.336,12.68914
6227.121,12.70768
6232.907,12.72955
6238.692,12.73867
6244.478,12.75346
6250.264,12.76169
6256.049,12.76188
6261.834,12.7721
6267.62,12.79073
6273.405,12.79743
6279.191,12.80857
6284.977,12.81927
6290.762,12.82343
6296.547,12.82659
6302.333,12.84817
6308.118,12.84684
6313.904,12.85291
6319.689,12.84628
6325.475,12.83335
6331.26,12.816
6337.046,12.7988
6342.831,12.77321
6348.617,12.74794
6354.402,12.71806
6360.188,12.69541
6365.974,12.64073
6371.759,12.57254
6377.544,12.51498
6383.33,12.49977
6389.115,12.48876
6394.901,12.47418
6400.687,12.43476
6406.472,12.36477
6412.257,12.27769
6418.043,12.21531
6423.828,12.18298
6429.614,12.16529
6435.399,12.13308
6441.185,12.06376
6446.97,11.96378
6452.756,11.85469
6458.541,11.74555
6464.327,11.56792
6470.112,11.28727
6475.897,10.93251
6481.684,10.71415
6487.469,10.74597
6493.254,10.88145
6499.04,11.03889
6504.825,11.16573
6510.61,11.26885
6516.396,11.34836
6522.182,11.41803
6527.967,11.47777
6533.753,11.5283
6539.538,11.56451
6545.324,11.60996
6551.109,11.63814
6556.895,11.67682
6562.68,11.71477
6568.466,11.75915
6574.251,11.80604
6580.037,11.83853
6585.822,11.86965
6591.607,11.88679
6597.393,11.89522
6603.179,11.89773
6608.964,11.89745
6614.75,11.90563
6620.535,11.90191
6626.32,11.88573
6632.106,11.88774
6637.892,11.86763
6643.677,11.84739
6649.463,11.82601
6655.248,11.79849
6661.034,11.7654
6666.819,11.73479
6672.604,11.70762
6678.39,11.66828
6684.176,11.62594
6689.961,11.58882
6695.747,11.53967
6701.532,11.48654
6707.317,11.42595
6713.103,11.36058
6718.889,11.28981
6724.674,11.2401
6730.459,11.19229
6736.245,11.13922
6742.03,11.084
6747.816,11.03727
6753.602,10.97989
6759.387,10.93147
6765.173,10.87532
6770.958,10.81184
6776.743,10.73162
6782.529,10.62542
6788.314,10.5199
6794.1,10.38915
6799.886,10.27111
6805.671,10.14411
6811.457,10.03856
6817.242,9.927241
6823.027,9.78675
6828.813,9.644509
6834.599,9.53075
6840.384,9.465238
6846.169,9.427421
6851.955,9.379399
6857.74,9.316865
6863.526,9.26399
6869.312,9.210982
6875.097,9.150926
6880.882,9.077298
6886.668,8.992299
6892.453,8.906482
6898.239,8.829413
6904.024,8.778642
6909.81,8.734306
6915.596,8.678271
6921.381,8.596321
6927.166,8.508081
6932.952,8.383313
6938.737,8.245643
6944.523,8.111477
6950.309,8.030361
6956.094,8.01655
6961.879,8.028159
6967.665,8.043639
6973.45,8.062327
6979.236,8.05608
6985.021,8.048649
6990.807,8.00841
6996.592,7.955896
7002.378,7.893375
7008.163,7.818999
7013.949,7.757883
7019.734,7.696568
7025.52,7.683919
7031.305,7.721262
7037.091,7.76308
7042.876,7.77302
7048.662,7.700015
7054.447,7.536612
7060.232,7.359084
7066.019,7.352983
7071.804,7.588795
7077.589,7.871435
7083.375,8.085211
7089.16,8.180989
7094.946,8.25653
7100.731,8.33996
7106.517,8.473837
7112.302,8.613231
7118.088,8.777383
7123.873,8.862082
7129.659,8.89575
7135.444,8.851067
7141.229,8.746981
7147.015,8.596294
7152.801,8.346894
7158.586,7.91243
7164.372,7.274918
7170.157,6.805456
7175.942,6.831858
7181.729,7.272325
7187.514,7.732507
7193.299,8.167929
7199.085,8.542284
7204.87,8.927576
7210.655,9.199662
7216.441,9.447157
7222.227,9.712544
7228.012,10.03489
7233.798,10.3592
7239.583,10.59093
7245.369,10.8531
7251.154,11.11225
7256.939,11.34832
7262.725,11.61236
7268.511,11.83622
7274.296,12.07195
7280.082,12.2792
7285.867,12.50001
7291.652,12.69892
7297.438,12.89622
7303.224,13.09648
7309.009,13.31476
7314.794,13.5006
7320.58,13.66192
7326.365,13.83865
7332.151,13.95239
7337.937,14.08313
7343.722,14.18858
7349.508,14.2489
7355.293,14.33597
7361.079,14.38564
7366.864,14.44084
7372.649,14.47627
7378.435,14.53115
7384.221,14.57044
7390.006,14.61005
7395.792,14.64434
7401.577,14.66809
7407.362,14.69287
7413.148,14.7194
7418.934,14.74245
7424.719,14.75381
7430.504,14.77534
7436.29,14.7995
7442.075,14.803
7447.861,14.8268
7453.646,14.85334
7459.432,14.86731
7465.218,14.88601
7471.003,14.89793
7476.788,14.9009
7482.574,14.90892
7488.359,14.89979
7494.145,14.89877
7499.931,14.89509
7505.716,14.89035
7511.501,14.89777
7517.287,14.88878
7523.072,14.89235
7528.858,14.88771
7534.644,14.87825
7540.429,14.86833
7546.214,14.8583
7552.0,14.84146
7557.785,14.83033
7563.571,14.81552
7569.356,14.80202
7575.142,14.78572
7580.927,14.77523
7586.713,14.76199
7592.498,14.74279
7598.284,14.72862
7604.069,14.69702
7609.854,14.67201
7615.641,14.64776
7621.426,14.61453
7627.211,14.58602
7632.997,14.55161
7638.782,14.51884
7644.568,14.48686
7650.354,14.46118
7656.139,14.41546
7661.924,14.40559
7667.71,14.38537
7673.495,14.35731
7679.281,14.34065
7685.066,14.32982
7690.852,14.31359
7696.637,14.29582
7702.423,14.28783
7708.208,14.2596
7713.994,14.25013
7719.779,14.23012
7725.564,14.2094
7731.35,14.18896
7737.136,14.17643
7742.921,14.17078
7748.707,14.14576
7754.492,14.11972
7760.277,14.0927
7766.063,14.07991
7771.849,14.04589
7777.634,14.02154
7783.42,14.02067
7789.205,14.02108
7794.991,14.01223
7800.776,13.99557
7806.562,13.95722
7812.347,13.94058
7818.133,13.92158
7823.918,13.89628
7829.704,13.87822
7835.489,13.85046
7841.274,13.81164
7847.06,13.78282
7852.846,13.75642
7858.631,13.70787
7864.417,13.67474
7870.202,13.61765
7875.987,13.57332
7881.773,13.5224
7887.559,13.47129
7893.344,13.41556
7899.13,13.35854
7904.915,13.3069
7910.7,13.26009
7916.486,13.19977
7922.271,13.12722
7928.057,13.07794
7933.843,13.00429
7939.628,12.93466
7945.414,12.86328
7951.199,12.78038
7956.984,12.69944
7962.77,12.60942
7968.556,12.52733
7974.341,12.43849
7980.126,12.3513
7985.912,12.26652
7991.697,12.1674
7997.483,12.06239
8003.269,11.96103
8009.054,11.86339
8014.839,11.74531
8020.625,11.63671
8026.41,11.51809
8032.196,11.40032
8037.981,11.25646
8043.767,11.13573
8049.553,10.99407
8055.338,10.85471
8061.124,10.70854
8066.909,10.55786
8072.694,10.42316
8078.48,10.27166
8084.266,10.10451
8090.051,9.960929
8095.836,9.788749
8101.622,9.622041
8107.407,9.452456
8113.192,9.262064
8118.979,9.08284
8124.764,8.886076
8130.55,8.684117
8136.335,8.484652
8142.12,8.309594
8147.906,8.093491
8153.691,7.894675
8159.477,7.680098
8165.263,7.475544
8171.048,7.266301
8176.833,7.062891
8182.619,6.868786
8188.404,6.705939
8194.189,6.552348
8199.976,6.447199
8205.761,6.34746
8211.546,6.278602
8217.332,6.250456
8223.117,6.240206
8228.902,6.255893
8234.688,6.274164
8240.474,6.312723
8246.259,6.330464
8252.045,6.365503
8257.83,6.404392
8263.616,6.482023
8269.401,6.558344
8275.187,6.676222
8280.973,6.78083
8286.758,6.92649
8292.543,7.067714
8298.329,7.214426
8304.114,7.37196
8309.899,7.522701
8315.686,7.67098
8321.471,7.81655
8327.256,7.955685
8333.042,8.10702
8338.827,8.278732
8344.612,8.456762
8350.398,8.650241
8356.184,8.849497
8361.969,9.053327
8367.755,9.251416
8373.54,9.447079
8379.325,9.628407
8385.111,9.775044
8390.896,9.896697
8396.683,9.990304
8402.468,10.04128
8408.253,10.03589
8414.039,9.991194
8419.824,9.937807
8425.609,9.954023
8431.396,10.01379
8437.181,10.14695
8442.966,10.32978
8448.752,10.52883
8454.537,10.73303
8460.322,10.90572
8466.108,11.03063
8471.894,11.17937
8477.679,11.33666
8483.465,11.51091
8489.25,11.6952
8495.035,11.84203
8500.821,11.94582
8506.606,12.01435
8512.392,12.03193
8518.178,12.09145
8523.963,12.15307
8529.748,12.21857
8535.534,12.23319
8541.319,12.17595
8547.105,12.0536
8552.891,11.86499
8558.676,11.62467
8564.462,11.46832
8570.247,11.57472
8576.032,11.811
8581.818,12.07734
8587.604,12.36832
8593.389,12.68163
8599.175,13.00438
8604.96,13.3162
8610.745,13.60752
8616.531,13.8658
8622.316,14.11854
8628.102,14.32329
8633.888,14.49357
8639.673,14.66469
8645.458,14.82862
8651.244,14.96446
8657.029,15.08203
8662.814,15.21949
8668.601,15.30135
8674.386,15.40843
8680.172,15.49432
8685.957,15.61149
8691.742,15.72472
8697.528,15.83478
8703.313,15.95217
8709.099,16.05777
8714.885,16.16323
8720.67,16.28805
8726.455,16.3952
8732.241,16.51302
8738.026,16.6302
8743.812,16.72947
8749.598,16.84063
8755.383,16.93804
8761.168,17.03912
8766.954,17.1099
8772.739,17.18302
8778.524,17.24957
8784.311,17.31865
8790.096,17.37205
8795.881,17.41321
8801.667,17.45391
8807.452,17.49657
8813.237,17.52461
8819.023,17.53883
8824.809,17.57932
8830.595,17.6004
8836.38,17.62726
8842.165,17.65863
8847.951,17.64541
8853.736,17.66859
8859.521,17.67414
8865.308,17.69972
8871.093,17.71886
8876.878,17.71382
8882.664,17.71211
8888.449,17.71514
8894.234,17.71976
8900.021,17.71779
8905.806,17.70794
8911.591,17.70656
8917.377,17.69905
8923.162,17.70166
8928.947,17.68692
8934.733,17.69197
8940.519,17.67417
8946.304,17.68737
8952.09,17.69042
8957.875,17.68611
8963.661,17.69301
8969.446,17.70153
8975.231,17.71361
8981.018,17.74764
8986.803,17.74313
8992.588,17.75647
8998.374,17.77358
9004.159,17.78626
9009.944,17.78827
9015.73,17.81765
9021.516,17.81615
9027.301,17.85014
9033.087,17.85042
9038.872,17.86968
9044.657,17.88588
9050.443,17.88896
9056.229,17.90772
9062.014,17.89175
9067.8,17.91724
9073.585,17.93657
9079.37,17.93028
9085.156,17.94713
9090.941,17.94018
9096.727,17.96987
9102.513,17.95522
9108.298,17.9789
9114.084,17.97213
9119.869,17.97999
9125.654,17.98221
9131.44,17.96941
9137.226,17.97651
9143.011,17.95259
9148.797,17.94975
9154.582,17.94539
9160.367,17.96022
9166.153,17.92826
9171.938,17.93697
9177.724,17.94009
9183.51,17.91845
9189.295,17.91886
9195.08,17.89156
9200.866,17.88892
9206.651,17.89357
9212.437,17.89334
9218.223,17.89466
9224.008,17.88289
9229.793,17.88012
9235.579,17.86499
9241.364,17.89921
9247.15,17.86972
9252.936,17.87018
9258.721,17.86818
9264.507,17.84055
9270.292,17.85806
9276.077,17.8363
9281.863,17.81437
9287.648,17.81375
9293.434,17.82894
9299.22,17.83052
9305.005,17.8311
9310.79,17.84772
9316.576,17.85707
9322.361,17.87269
9328.146,17.86247
9333.933,17.86853
9339.718,17.8741
9345.503,17.8603
9351.289,17.84269
9357.074,17.83928
9362.859,17.82661
9368.646,17.803
9374.431,17.80607
9380.217,17.78121
9386.002,17.76303
9391.787,17.75726
9397.573,17.73798
9403.358,17.71723
9409.144,17.68868
9414.93,17.69804
9420.715,17.63588
9426.5,17.64521
9432.286,17.59731
9438.071,17.5971
9443.856,17.56317
9449.643,17.56289
9455.428,17.51177
9461.213,17.47729
9466.999,17.4787
9472.784,17.43452
9478.569,17.4322
9484.355,17.43366
9490.141,17.40581
9495.926,17.38616
9501.712,17.37664
9507.497,17.38647
9513.282,17.35616
9519.068,17.34386
9524.854,17.31354
9530.64,17.29088
9536.425,17.3059
9542.21,17.25833
9547.996,17.24418
9553.781,17.21908
9559.566,17.22765
9565.353,17.18587
9571.138,17.18664
9576.923,17.1689
9582.709,17.12961
9588.494,17.13926
9594.279,17.11349
9600.065,17.13365
9605.851,17.17793
9611.636,17.191
9617.422,17.20206
9623.207,17.25711
9628.992,17.31735
9634.778,17.32768
9640.563,17.3735
9646.349,17.38486
9652.135,17.46915
9657.92,17.51884
9663.706,17.55514
9669.491,17.5989
9675.276,17.64864
9681.063,17.69473
9686.848,17.72298
9692.633,17.77882
9698.419,17.84246
9704.204,17.86701
9709.989,17.91715
9715.775,18.00232
9721.561,18.01067
9727.346,18.04973
9733.132,18.13136
9738.917,18.1534
9744.702,18.18969
9750.488,18.24988
9756.273,18.28283
9762.059,18.29999
9767.845,18.34259
9773.63,18.33905
9779.415,18.33429
9785.201,18.35687
9790.986,18.3696
9796.771,18.3676
9802.558,18.34427
9808.343,18.38089
9814.129,18.36116
9819.914,18.37822
9825.699,18.39934
9831.485,18.43737
9837.271,18.48026
9843.056,18.50595
9848.842,18.53505
9854.627,18.57249
9860.412,18.65238
9866.198,18.67337
9871.983,18.73685
9877.769,18.80171
9883.555,18.81713
9889.34,18.89581
9895.125,18.92295
9900.911,18.98016
9906.696,19.02215
9912.481,19.06339
9918.268,19.096
9924.053,19.14788
9929.838,19.13421
9935.624,19.2322
9941.409,19.25072
9947.195,19.26225
9952.98,19.30691
9958.766,19.35589
9964.552,19.39938
9970.337,19.42185
9976.122,19.4246
9981.908,19.49052
9987.693,19.50179
9993.479,19.52891
9999.265,19.51269
10005.05,19.54374
10010.83,19.56257
10016.62,19.60427
10022.41,19.6316
10028.19,19.62303
10033.98,19.65841
10039.76,19.69478
10045.55,19.7206
10051.33,19.76939
10057.12,19.78649
10062.9,19.77798
10068.69,19.82801
10074.48,19.76419
10080.26,19.82993
10086.05,19.84011
10091.83,19.84739
10097.62,19.86004
10103.4,19.86838
10109.19,19.88842
10114.97,19.9229
10120.76,19.91888
10126.54,19.9325
10132.33,19.95482
10138.12,19.93129
10143.9,19.97071
10149.69,19.9595
10155.47,19.98447
10161.26,19.97952
10167.04,19.97149
10172.83,20.01395
10178.61,20.02346
10184.4,19.99997
10190.19,19.99069
10195.97,19.99853
10201.76,19.9946
10207.54,20.03811
10213.33,20.06942
10219.11,20.04684
10224.9,20.05705
10230.68,20.04522
10236.47,20.03381
10242.25,20.01863
10248.04,20.06508
10253.83,20.06271
10259.61,20.04931
10265.4,20.06717
10271.18,20.06339
10276.97,20.04211
10282.75,20.07237
10288.54,20.01332
10294.32,20.06579
10300.11,20.05925
10305.9,20.05639
10311.68,20.05759
10317.47,20.0507
10323.25,20.09322
10329.04,20.07195
10334.82,20.01313
10340.61,20.04167
10346.39,20.05035
10352.18,20.01406
10357.96,20.03142
10363.75,20.05162
10369.54,19.97572
10375.32,20.01341
10381.11,20.03109
10386.89,20.02251
10392.68,20.05788
10398.46,19.97654
10404.25,20.02869
10410.03,20.0052
10415.82,20.01229
10421.61,19.96617
10427.39,19.95311
10433.18,19.90614
10438.96,19.92643
10444.75,19.91646
10450.53,19.90483
10456.32,19.88423
10462.1,19.85002
10467.89,19.85904
10473.67,19.86837
10479.46,19.84187
10485.25,19.82742
10491.03,19.76462
10496.82,19.66982
10502.6,19.71183
10508.39,19.62998
10514.17,19.62998
10519.96,19.59953
10525.74,19.49769
10531.53,19.43419
10537.32,19.39595
10543.1,19.38471
10548.89,19.28854
10554.67,19.22837
10560.46,19.16476
10566.24,19.11072
10572.03,19.03028
10577.81,18.92657
10583.6,18.82436
10589.38,18.73666
10595.17,18.65566
10600.96,18.51286
10606.74,18.38317
10612.53,18.32005
10618.31,18.19715
10624.1,18.05061
10629.88,17.95277
10635.67,17.776
10641.45,17.65065
10647.24,17.49173
10653.03,17.37786
10658.81,17.22296
10664.6,17.05692
10670.38,16.95096
10676.17,16.82203
10681.95,16.72098
10687.74,16.61373
10693.52,16.59961
10699.31,16.47056
10705.09,16.42124
10710.88,16.40341
10716.67,16.43106
10722.45,16.3836
10728.24,16.37142
10734.02,16.38226
10739.81,16.42814
10745.59,16.47583
10751.38,16.50644
10757.16,16.57701
10762.95,16.65496
10768.74,16.70658
10774.52,16.78986
10780.31,16.86981
10786.09,16.96711
10791.88,17.15359
10797.66,17.21112
10803.45,17.36785
10809.23,17.41802
10815.02,17.51146
10820.8,17.61677
10826.59,17.72246
10832.38,17.89821
10838.16,18.07592
10843.95,18.13645
10849.73,18.26501
10855.52,18.32225
10861.3,18.44136
10867.09,18.50992
10872.87,18.70145
10878.66,18.78724
10884.45,18.84881
10890.23,18.89024
10896.02,19.02358
10901.8,19.16367
10907.59,19.25693
10913.37,19.35811
10919.16,19.4493
10924.94,19.53965
10930.73,19.57411
10936.51,19.73428
10942.3,19.76376
10948.09,19.85928
10953.87,19.93356
10959.66,20.06231
10965.44,20.12618
10971.23,20.11055
10977.01,20.25721
10982.8,20.26528
10988.58,20.34896
10994.37,20.36721
11000.16,20.44054
11005.94,20.43817
11011.73,20.51224
11017.51,20.57824
11023.3,20.64878
11029.08,20.60758
11034.87,20.67038
11040.65,20.79917
11046.44,20.7051
11052.22,20.82234
11058.01,20.80043
11063.79,20.75986
11069.58,20.83204
11075.37,20.88572
11081.15,20.87779
11086.94,20.92311
11092.72,20.89941
11098.51,20.99817
11104.29,20.91511
11110.08,20.93681
11115.87,20.96466
11121.65,20.98052
11127.44,20.94089
11133.22,21.10147
11139.01,21.04916
11144.79,21.17448
11150.58,21.06899
11156.36,21.08441
11162.15,21.11786
11167.93,21.15591
11173.72,21.21563
11179.5,21.1583
11185.29,21.21319
11191.08,21.31115
11196.86,21.36211
11202.65,21.36473
11208.43,21.45904
11214.22,21.52151
11220.0,21.5331
11225.79,21.58237
11231.58,21.67721
11237.36,21.58456
11243.15,21.68338
11248.93,21.56343
11254.72,21.8535
11260.5,21.78282
11266.29,21.72232
11272.07,21.75147
11277.86,21.80502
11283.64,21.86623
11289.43,21.88109
11295.21,22.0021
11301.0,21.99024
11306.79,21.93821
11312.57,22.05194
11318.36,21.98491
11324.14,22.02258
11329.93,22.09512
11335.71,22.09227
11341.5,22.15297
11347.28,22.09773
11353.07,22.20684
11358.86,22.14397
11364.64,22.15716
11370.43,22.19625
11376.21,22.19301
11382.0,22.17844
11387.78,22.28657
11393.57,22.24202
11399.35,22.19088
11405.14,22.3098
11410.92,22.29392
11416.71,22.1651
11422.5,22.35144
11428.28,22.39227
11434.07,22.4301
11439.85,22.42223
11445.64,22.46635
11451.42,22.48188
11457.21,22.48777
11462.99,22.43003
11468.78,22.41226
11474.57,22.49599
11480.35,22.52752
11486.14,22.43917
11491.92,22.5353
11497.71,22.65926
11503.49,22.50936
11509.28,22.66944
11515.06,22.59576
11520.85,22.5995
11526.63,22.68856
11532.42,22.69396
11538.21,22.68025
11543.99,22.80529
11549.78,22.74294
11555.56,22.73392
11561.35,22.76348
11567.13,22.78466
11572.92,22.7718
11578.7,22.9273
11584.49,22.69167
11590.28,22.92669
11596.06,22.82383
11601.85,22.91009
11607.63,22.92271
11613.42,22.78758
11619.2,22.8422
11624.99,22.88411
11630.77,22.95071
11636.56,23.00053
11642.34,22.948
11648.13,22.93846
11653.92,23.14665
11659.7,22.89624
11665.49,23.00218
11671.27,23.06676
11677.06,22.98455
11682.84,22.96364
11688.63,22.9686
11694.41,22.92504
11700.2,22.88413
11705.99,22.84066
11711.77,22.8996
11717.56,22.93868
11723.34,22.9308
11729.13,22.88663
11734.91,23.01394
11740.7,22.87885
11746.48,22.87199
11752.27,22.79193
11758.05,22.89704
11763.84,22.84052
11769.63,22.96704
11775.41,22.77681
11781.2,22.73659
11786.98,22.8937
11792.77,22.86801
11798.55,22.93821
11804.34,22.82661
11810.12,22.68709
11815.91,23.06939
11821.7,22.91634
11827.48,22.93167
11833.27,22.88045
11839.05,22.94735
11844.84,22.81219
11850.62,22.92088
11856.41,22.9736
11862.19,22.95367
11867.98,22.72773
11873.76,22.96397
11879.55,23.01558
11885.34,22.92654
11891.12,22.92912
11896.91,22.8678
11902.69,23.05688
11908.48,22.75126
11914.26,22.86513
11920.05,22.946
11925.83,22.76024
11931.62,22.80077
11937.41,22.86373
11943.19,22.81336
11948.98,22.74216
11954.76,22.68534
11960.55,22.72356
11966.33,22.86878
11972.12,23.04157
11977.9,22.81467
11983.69,22.62002
11989.47,22.65914
11995.26,22.78789
11999.12,22.64882