File: Data/NIR/S0040HDPE_6.csv
Wavenumber,Intensity
3999.706,4.617314
4005.491,4.615256
4011.277,4.619336
4017.062,4.603063
4022.848,4.609033
4028.633,4.618024
4034.419,4.622512
4040.204,4.624021
4045.99,4.635558
4051.775,4.635014
4057.561,4.638342
4063.346,4.64452
4069.132,4.63998
4074.917,4.645468
4080.703,4.648867
4086.488,4.645164
4092.274,4.644739
4098.059,4.642232
4103.845,4.652557
4109.63,4.653481
4115.416,4.657578
4121.201,4.656825
4126.987,4.659269
4132.772,4.659816
4138.558,4.659581
4144.343,4.659761
4150.129,4.664803
4155.914,4.67193
4161.7,4.666965
4167.485,4.680585
4173.271,4.681652
4179.056,4.691958
4184.842,4.695283
4190.627,4.705413
4196.413,4.71862
4202.198,4.733047
4207.983,4.743201
4213.769,4.753741
4219.555,4.761511
4225.34,4.770018
4231.125,4.78364
4236.911,4.790396
4242.697,4.787925
4248.482,4.787228
4254.268,4.78915
4260.053,4.803577
4265.838,4.817909
4271.624,4.826155
4277.41,4.830895
4283.195,4.838291
4288.98,4.842201
4294.766,4.84948
4300.552,4.853667
4306.337,4.849166
4312.123,4.83451
4317.908,4.826564
4323.693,4.818944
4329.479,4.822291
4335.265,4.828554
4341.05,4.833548
4346.835,4.839206
4352.621,4.856726
4358.407,4.865261
4364.192,4.873435
4369.978,4.886676
4375.763,4.903358
4381.548,4.919417
4387.334,4.942639
4393.12,4.980959
4398.905,5.024808
4404.69,5.081703
4410.476,5.153257
4416.262,5.217409
4422.047,5.274365
4427.833,5.318277
4433.618,5.356129
4439.403,5.400484
4445.189,5.454043
4450.975,5.520464
4456.76,5.585651
4462.545,5.63986
4468.331,5.690841
4474.116,5.720509
4479.902,5.777233
4485.688,5.849781
4491.473,5.91723
4497.258,5.982506
4503.044,6.043967
4508.83,6.116305
4514.615,6.183166
4520.4,6.250554
4526.186,6.307949
4531.971,6.368657
4537.757,6.438774
4543.542,6.509171
4549.328,6.57936
4555.113,6.660892
4560.899,6.740294
4566.685,6.809651
4572.47,6.870376
4578.255,6.921683
4584.041,6.963963
4589.826,6.993204
4595.612,7.021768
4601.397,7.034396
4607.183,7.063252
4612.968,7.094988
4618.754,7.125516
4624.539,7.160633
4630.325,7.185769
4636.11,7.199945
4641.896,7.210998
4647.681,7.214617
4653.467,7.193194
4659.252,7.136621
4665.038,7.070021
4670.823,7.083735
4676.609,7.170512
4682.394,7.263493
4688.18,7.307341
4693.965,7.324962
4699.751,7.327734
4705.536,7.316755
4711.322,7.285588
4717.107,7.248091
4722.893,7.226621
4728.678,7.209174
4734.464,7.204033
4740.249,7.205635
4746.035,7.193239
4751.82,7.174064
4757.605,7.149948
4763.391,7.118458
4769.177,7.062727
4774.962,7.002903
4780.748,6.969942
4786.533,6.965063
4792.319,6.952924
4798.104,6.935785
4803.89,6.907962
4809.675,6.871964
4815.46,6.824085
4821.246,6.780729
4827.032,6.751187
4832.817,6.719151
4838.603,6.679427
4844.388,6.628811
4850.174,6.571822
4855.959,6.525289
4861.745,6.487155
4867.53,6.462662
4873.315,6.4667
4879.101,6.490746
4884.887,6.514719
4890.672,6.542099
4896.458,6.561278
4902.243,6.580458
4908.028,6.598301
4913.814,6.601162
4919.6,6.600805
4925.385,6.597396
4931.17,6.598555
4936.956,6.599813
4942.742,6.58848
4948.527,6.548386
4954.313,6.458423
4960.098,6.348065
4965.883,6.322855
4971.669,6.378454
4977.455,6.41409
4983.24,6.449319
4989.025,6.499824
4994.811,6.556803
5000.597,6.631269
5006.382,6.685376
5012.167,6.70376
5017.953,6.703079
5023.738,6.72449
5029.524,6.752361
5035.31,6.767382
5041.095,6.776042
5046.88,6.781261
5052.666,6.764416
5058.451,6.730472
5064.237,6.715919
5070.022,6.721601
5075.808,6.72477
5081.593,6.720477
5087.379,6.706201
5093.165,6.695658
5098.95,6.684748
5104.735,6.699092
5110.521,6.72076
5116.307,6.740149
5122.092,6.756212
5127.877,6.772036
5133.663,6.7853
5139.448,6.779896
5145.234,6.756529
5151.02,6.731628
5156.805,6.713562
5162.59,6.712319
5168.376,6.71567
5174.161,6.716107
5179.947,6.71188
5185.732,6.709993
5191.518,6.709049
5197.303,6.736251
5203.089,6.735647
5208.874,6.756145
5214.66,6.729618
5220.445,6.741159
5226.231,6.769741
5232.016,6.771935
5237.802,6.777134
5243.587,6.814535
5249.373,6.829545
5255.158,6.846083
5260.944,6.847054
5266.729,6.844893
5272.515,6.822455
5278.3,6.826245
5284.086,6.844014
5289.871,6.857027
5295.657,6.821794
5301.442,6.798265
5307.228,6.778646
5313.013,6.790319
5318.799,6.887808
5324.584,6.933286
5330.37,6.935974
5336.155,6.927386
5341.94,6.864861
5347.726,6.800698
5353.512,6.744009
5359.297,6.661246
5365.083,6.62251
5370.868,6.565019
5376.654,6.560917
5382.439,6.538377
5388.225,6.514846
5394.01,6.496029
5399.796,6.426572
5405.581,6.382014
5411.367,6.325064
5417.152,6.211147
5422.938,6.17781
5428.723,6.179076
5434.509,6.160573
5440.294,6.163638
5446.08,6.142422
5451.865,6.114565
5457.65,6.105616
5463.436,6.095641
5469.222,6.083705
5475.007,6.067658
5480.792,6.003893
5486.578,5.96929
5492.363,5.969923
5498.149,5.96907
5503.935,5.988976
5509.72,6.011555
5515.505,6.029328
5521.291,6.043957
5527.077,6.031367
5532.862,6.032428
5538.647,6.018076
5544.433,6.008091
5550.219,5.99853
5556.004,6.003626
5561.79,6.025284
5567.575,6.068874
5573.36,6.133564
5579.146,6.202231
5584.932,6.25526
5590.717,6.268794
5596.502,6.255449
5602.288,6.207245
5608.073,6.15159
5613.859,6.090311
5619.645,6.039309
5625.43,5.985046
5631.215,5.937447
5637.001,5.881736
5642.786,5.805844
5648.572,5.661517
5654.357,5.467797
5660.143,5.329553
5665.929,5.31309
5671.714,5.392295
5677.5,5.502996
5683.285,5.592865
5689.07,5.668101
5694.856,5.74598
5700.642,5.857303
5706.427,5.962567
5712.212,6.016676
5717.998,5.998045
5723.783,5.856122
5729.569,5.623173
5735.354,5.565171
5741.14,5.530727
5746.925,5.444189
5752.711,5.349562
5758.496,5.273733
5764.282,5.208748
5770.067,5.16887
5775.853,5.158528
5781.638,5.178172
5787.424,5.206418
5793.209,5.246373
5798.995,5.286817
5804.78,5.324462
5810.566,5.380445
5816.352,5.436912
5822.137,5.493989
5827.922,5.579797
5833.708,5.67722
5839.493,5.780538
5845.279,5.924083
5851.064,6.135787
5856.85,6.424573
5862.635,6.796415
5868.421,7.193437
5874.206,7.578077
5879.992,7.916987
5885.777,8.192392
5891.563,8.424212
5897.348,8.619502
5903.134,8.803404
5908.919,8.97924
5914.705,9.140635
5920.49,9.288003
5926.276,9.436592
5932.061,9.589531
5937.847,9.732325
5943.632,9.864429
5949.418,9.996157
5955.203,10.15407
5960.989,10.3645
5966.774,10.60578
5972.56,10.84912
5978.345,11.08145
5984.131,11.29266
5989.916,11.48828
5995.702,11.66026
6001.487,11.83181
6007.272,11.98152
6013.058,12.13535
6018.844,12.29462
6024.629,12.45037
6030.415,12.58561
6036.2,12.70538
6041.985,12.80949
6047.771,12.91346
6053.557,12.99937
6059.342,13.08918
6065.128,13.15156
6070.913,13.22031
6076.698,13.28358
6082.484,13.34408
6088.27,13.39616
6094.055,13.39901
6099.841,13.30679
6105.626,13.20664
6111.412,13.23978
6117.197,13.37827
6122.982,13.48983
6128.768,13.58498
6134.554,13.67408
6140.339,13.76111
6146.125,13.82842
6151.91,13.88411
6157.695,13.93708
6163.481,13.99233
6169.267,14.049
6175.052,14.10213
6180.837,14.13299
6186.623,14.16328
6192.408,14.19397
6198.194,14.22572
6203.979,14.24653
6209.765,14.27464
6215.551,14.30246
6221.336,14.34001
6227.121,14.36009
6232.907,14.3838
6238.692,14.39542
6244.478,14.40991
6250.264,14.42079
6256.049,14.42677
6261.834,14.44423
6267.62,14.45809
6273.405,14.47184
6279.191,14.48619
6284.977,14.49769
6290.762,14.50195
6296.547,14.50511
6302.333,14.52856
6308.118,14.53248
6313.904,14.53954
6319.689,14.53752
6325.475,14.5189
6331.26,14.49846
6337.046,14.4806
6342.831,14.44932
6348.617,14.41832
6354.402,14.39374
6360.188,14.36472
6365.974,14.30409
6371.759,14.22494
6377.544,14.16826
6383.33,14.14524
6389.115,14.13115
6394.901,14.11553
6400.687,14.07549
6406.472,13.98916
6412.257,13.89823
6418.043,13.82768
6423.828,13.78967
6429.614,13.77244
6435.399,13.73828
6441.185,13.65633
6446.97,13.55185
6452.756,13.42416
6458.541,13.29797
6464.327,13.10042
6470.112,12.77771
6475.897,12.38785
6481.684,12.12867
6487.469,12.16751
6493.254,12.32746
6499.04,12.49773
6504.825,12.64728
6510.61,12.76925
6516.396,12.85683
6522.182,12.93463
6527.967,13.00298
6533.753,13.06258
6539.538,13.11361
6545.324,13.15336
6551.109,13.19409
6556.895,13.23254
6562.68,13.27635
6568.466,13.33263
6574.251,13.38419
6580.037,13.42811
6585.822,13.45622
6591.607,13.47665
6597.393,13.48876
6603.179,13.49503
6608.964,13.50111
6614.75,13.50822
6620.535,13.5003
6626.32,13.49241
6632.106,13.48749
6637.892,13.46315
6643.677,13.44444
6649.463,13.41657
6655.248,13.38967
6661.034,13.35038
6666.819,13.3205
6672.604,13.28849
6678.39,13.24296
6684.176,13.20225
6689.961,13.15679
6695.747,13.09881
6701.532,13.03504
6707.317,12.9766
6713.103,12.90284
6718.889,12.82624
6724.674,12.76666
6730.459,12.70836
6736.245,12.65697
6742.03,12.59385
6747.816,12.53798
6753.602,12.48494
6759.387,12.42515
6765.173,12.36292
6770.958,12.2848
6776.743,12.19884
6782.529,12.0804
6788.314,11.95993
6794.1,11.82184
6799.886,11.67912
6805.671,11.543
6811.457,11.4205
6817.242,11.30252
6823.027,11.14778
6828.813,10.98674
6834.599,10.85869
6840.384,10.79064
6846.169,10.74358
6851.955,10.6909
6857.74,10.62331
6863.526,10.56857
6869.312,10.51219
6875.097,10.44078
6880.882,10.36107
6886.668,10.27046
6892.453,10.1766
6898.239,10.08833
6904.024,10.03284
6909.81,9.991419
6915.596,9.922424
6921.381,9.836224
6927.166,9.733439
6932.952,9.604158
6938.737,9.450432
6944.523,9.301794
6950.309,9.214853
6956.094,9.202913
6961.879,9.216938
6967.665,9.230349
6973.45,9.256334
6979.236,9.250496
6985.021,9.237828
6990.807,9.184879
6996.592,9.143157
7002.378,9.070347
7008.163,8.981312
7013.949,8.912374
7019.734,8.853255
7025.52,8.844763
7031.305,8.879912
7037.091,8.929408
7042.876,8.9336
7048.662,8.869435
7054.447,8.694315
7060.232,8.483834
7066.019,8.482244
7071.804,8.738918
7077.589,9.056428
7083.375,9.285479
7089.16,9.395084
7094.946,9.48126
7100.731,9.568198
7106.517,9.728007
7112.302,9.873028
7118.088,10.06633
7123.873,10.15639
7129.659,10.19635
7135.444,10.14336
7141.229,10.02743
7147.015,9.852676
7152.801,9.590425
7158.586,9.110103
7164.372,8.416798
7170.157,7.894211
7175.942,7.931771
7181.729,8.420827
7187.514,8.916031
7193.299,9.393462
7199.085,9.808658
7204.87,10.23773
7210.655,10.54021
7216.441,10.81381
7222.227,11.1179
7228.012,11.47337
7233.798,11.84471
7239.583,12.11458
7245.369,12.40436
7251.154,12.68661
7256.939,12.95825
7262.725,13.25204
7268.511,13.50634
7274.296,13.77903
7280.082,14.01831
7285.867,14.27167
7291.652,14.48884
7297.438,14.71983
7303.224,14.94351
7309.009,15.1987
7314.794,15.4129
7320.58,15.59353
7326.365,15.80307
7332.151,15.92416
7337.937,16.07191
7343.722,16.2038
7349.508,16.26816
7355.293,16.37527
7361.079,16.41484
7366.864,16.49656
7372.649,16.5219
7378.435,16.58825
7384.221,16.63107
7390.006,16.67059
7395.792,16.7129
7401.577,16.74677
7407.362,16.77096
7413.148,16.80387
7418.934,16.84183
7424.719,16.84144
7430.504,16.87349
7436.29,16.89479
7442.075,16.90712
7447.861,16.93425
7453.646,16.96104
7459.432,16.98293
7465.218,16.99626
7471.003,17.01866
7476.788,17.02488
7482.574,17.03144
7488.359,17.02571
7494.145,17.02014
7499.931,17.01331
7505.716,17.0016
7511.501,17.01205
7517.287,17.00514
7523.072,17.01325
7528.858,17.00266
7534.644,16.99625
7540.429,16.97521
7546.214,16.9723
7552.0,16.9582
7557.785,16.94298
7563.571,16.9248
7569.356,16.90627
7575.142,16.90185
7580.927,16.87765
7586.713,16.87108
7592.498,16.85398
7598.284,16.83333
7604.069,16.79243
7609.854,16.76589
7615.641,16.73907
7621.426,16.70445
7627.211,16.67467
7632.997,16.62462
7638.782,16.5955
7644.568,16.55317
7650.354,16.52796
7656.139,16.48823
7661.924,16.47236
7667.71,16.44656
7673.495,16.41345
7679.281,16.39825
7685.066,16.37774
7690.852,16.37026
7696.637,16.35256
7702.423,16.33544
7708.208,16.31272
7713.994,16.29031
7719.779,16.26892
7725.564,16.24693
7731.35,16.22759
7737.136,16.21194
7742.921,16.20136
7748.707,16.18141
7754.492,16.15633
7760.277,16.12036
7766.063,16.09546
7771.849,16.05867
7777.634,16.04033
7783.42,16.0432
7789.205,16.02663
7794.991,16.02963
7800.776,16.00613
7806.562,15.97053
7812.347,15.95187
7818.133,15.93538
7823.918,15.89848
7829.704,15.87364
7835.489,15.84725
7841.274,15.81447
7847.06,15.77367
7852.846,15.73527
7858.631,15.69591
7864.417,15.6392
7870.202,15.59123
7875.987,15.53936
7881.773,15.47936
7887.559,15.41245
7893.344,15.36328
7899.13,15.28342
7904.915,15.24694
7910.7,15.1826
7916.486,15.12418
7922.271,15.04384
7928.057,14.97515
7933.843,14.89135
7939.628,14.81339
7945.414,14.73112
7951.199,14.64593
7956.984,14.56095
7962.77,14.4675
7968.556,14.35292
7974.341,14.26448
7980.126,14.16253
7985.912,14.06461
7991.697,13.95394
7997.483,13.84105
8003.269,13.72596
8009.054,13.60967
8014.839,13.48652
8020.625,13.3585
8026.41,13.21729
8032.196,13.07847
8037.981,12.92974
8043.767,12.78932
8049.553,12.63454
8055.338,12.47714
8061.124,12.31641
8066.909,12.15467
8072.694,11.98941
8078.48,11.82191
8084.266,11.6467
8090.051,11.47821
8095.836,11.29574
8101.622,11.10037
8107.407,10.91225
8113.192,10.7055
8118.979,10.49718
8124.764,10.28216
8130.55,10.06605
8136.335,9.83535
8142.12,9.638895
8147.906,9.415823
8153.691,9.193587
8159.477,8.950564
8165.263,8.723788
8171.048,8.492845
8176.833,8.275743
8182.619,8.063672
8188.404,7.880233
8194.189,7.717957
8199.976,7.601424
8205.761,7.490078
8211.546,7.411995
8217.332,7.386479
8223.117,7.386765
8228.902,7.402805
8234.688,7.418191
8240.474,7.45436
8246.259,7.479138
8252.045,7.512831
8257.83,7.554311
8263.616,7.655483
8269.401,7.734205
8275.187,7.859249
8280.973,7.971188
8286.758,8.129355
8292.543,8.305546
8298.329,8.460376
8304.114,8.634162
8309.899,8.790229
8315.686,8.961706
8321.471,9.126958
8327.256,9.267304
8333.042,9.434555
8338.827,9.616981
8344.612,9.817539
8350.398,10.05102
8356.184,10.26448
8361.969,10.49124
8367.755,10.71764
8373.54,10.93406
8379.325,11.12751
8385.111,11.30849
8390.896,11.4414
8396.683,11.54108
8402.468,11.59308
8408.253,11.5853
8414.039,11.53445
8419.824,11.48634
8425.609,11.49882
8431.396,11.56673
8437.181,11.71588
8442.966,11.91683
8448.752,12.14915
8454.537,12.37836
8460.322,12.56793
8466.108,12.70638
8471.894,12.8742
8477.679,13.05567
8483.465,13.25323
8489.25,13.45465
8495.035,13.61582
8500.821,13.73466
8506.606,13.81554
8512.392,13.84745
8518.178,13.89783
8523.963,13.97798
8529.748,14.05539
8535.534,14.05453
8541.319,14.00918
8547.105,13.85874
8552.891,13.64802
8558.676,13.37924
8564.462,13.19857
8570.247,13.31607
8576.032,13.59199
8581.818,13.90145
8587.604,14.22126
8593.389,14.57098
8599.175,14.95152
8604.96,15.29495
8610.745,15.6235
8616.531,15.91708
8622.316,16.18357
8628.102,16.42993
8633.888,16.63329
8639.673,16.82142
8645.458,17.00483
8651.244,17.16363
8657.029,17.29256
8662.814,17.44375
8668.601,17.54697
8674.386,17.67076
8680.172,17.7886
8685.957,17.91176
8691.742,18.0308
8697.528,18.15185
8703.313,18.29021
8709.099,18.39915
8714.885,18.52611
8720.67,18.67303
8726.455,18.78083
8732.241,18.91613
8738.026,19.05444
8743.812,19.1638
8749.598,19.29286
8755.383,19.40702
8761.168,19.5043
8766.954,19.59488
8772.739,19.68572
8778.524,19.75507
8784.311,19.83533
8790.096,19.90018
8795.881,19.9447
8801.667,19.99825
8807.452,20.02693
8813.237,20.08143
8819.023,20.1016
8824.809,20.13214
8830.595,20.16895
8836.38,20.18907
8842.165,20.22968
8847.951,20.2122
8853.736,20.23836
8859.521,20.24898
8865.308,20.2701
8871.093,20.28458
8876.878,20.28867
8882.664,20.29091
8888.449,20.29581
8894.234,20.30028
8900.021,20.30003
8905.806,20.29569
8911.591,20.28074
8917.377,20.27368
8923.162,20.27842
8928.947,20.25762
8934.733,20.26887
8940.519,20.26012
8946.304,20.25462
8952.09,20.2797
8957.875,20.27896
8963.661,20.25582
8969.446,20.28742
8975.231,20.30188
8981.018,20.3266
8986.803,20.32041
8992.588,20.34087
8998.374,20.35571
9004.159,20.39805
9009.944,20.39485
9015.73,20.40794
9021.516,20.42064
9027.301,20.44433
9033.087,20.44529
9038.872,20.47733
9044.657,20.48326
9050.443,20.49425
9056.229,20.52102
9062.014,20.52216
9067.8,20.54253
9073.585,20.54689
9079.37,20.54614
9085.156,20.57131
9090.941,20.5671
9096.727,20.58581
9102.513,20.59345
9108.298,20.59625
9114.084,20.60186
9119.869,20.59777
9125.654,20.59655
9131.44,20.6037
9137.226,20.60273
9143.011,20.58689
9148.797,20.58057
9154.582,20.56726
9160.367,20.58392
9166.153,20.56718
9171.938,20.55898
9177.724,20.55348
9183.51,20.54562
9189.295,20.53566
9195.08,20.51248
9200.866,20.50768
9206.651,20.51171
9212.437,20.52081
9218.223,20.49725
9224.008,20.50747
9229.793,20.50783
9235.579,20.49791
9241.364,20.5014
9247.15,20.47657
9252.936,20.47276
9258.721,20.48861
9264.507,20.46088
9270.292,20.4804
9276.077,20.45439
9281.863,20.4356
9287.648,20.42962
9293.434,20.43706
9299.22,20.44302
9305.005,20.45988
9310.79,20.45198
9316.576,20.47706
9322.361,20.47763
9328.146,20.49632
9333.933,20.48273
9339.718,20.49126
9345.503,20.48187
9351.289,20.4632
9357.074,20.4598
9362.859,20.43447
9368.646,20.4365
9374.431,20.41909
9380.217,20.38944
9386.002,20.38296
9391.787,20.35409
9397.573,20.34873
9403.358,20.31349
9409.144,20.28057
9414.93,20.28443
9420.715,20.24622
9426.5,20.24311
9432.286,20.19137
9438.071,20.17524
9443.856,20.16385
9449.643,20.1192
9455.428,20.09307
9461.213,20.04494
9466.999,20.01886
9472.784,20.00646
9478.569,20.0176
9484.355,19.98581
9490.141,19.95014
9495.926,19.95253
9501.712,19.95544
9507.497,19.9284
9513.282,19.91646
9519.068,19.89391
9524.854,19.87976
9530.64,19.86604
9536.425,19.87123
9542.21,19.81877
9547.996,19.79908
9553.781,19.78186
9559.566,19.77127
9565.353,19.7283
9571.138,19.71133
9576.923,19.68305
9582.709,19.67987
9588.494,19.67199
9594.279,19.63002
9600.065,19.67131
9605.851,19.68469
9611.636,19.72198
9617.422,19.76747
9623.207,19.80748
9628.992,19.85144
9634.778,19.88065
9640.563,19.91932
9646.349,19.95867
9652.135,20.02311
9657.92,20.10036
9663.706,20.15102
9669.491,20.22435
9675.276,20.26057
9681.063,20.31288
9686.848,20.32649
9692.633,20.39528
9698.419,20.44894
9704.204,20.49545
9709.989,20.55265
9715.775,20.61146
9721.561,20.64583
9727.346,20.74139
9733.132,20.79404
9738.917,20.82211
9744.702,20.86027
9750.488,20.89401
9756.273,20.94885
9762.059,21.00381
9767.845,20.98786
9773.63,21.03342
9779.415,21.0323
9785.201,21.06949
9790.986,21.0561
9796.771,21.03365
9802.558,21.05376
9808.343,21.08945
9814.129,21.06916
9819.914,21.0717
9825.699,21.10615
9831.485,21.11382
9837.271,21.15691
9843.056,21.19324
9848.842,21.25051
9854.627,21.30427
9860.412,21.37142
9866.198,21.41033
9871.983,21.50276
9877.769,21.54865
9883.555,21.57592
9889.34,21.66894
9895.125,21.70076
9900.911,21.75887
9906.696,21.8208
9912.481,21.83985
9918.268,21.89429
9924.053,21.92372
9929.838,21.98474
9935.624,22.04615
9941.409,22.05901
9947.195,22.08103
9952.98,22.13672
9958.766,22.18242
9964.552,22.22064
9970.337,22.22951
9976.122,22.2449
9981.908,22.27938
9987.693,22.33274
9993.479,22.35166
9999.265,22.37536
10005.05,22.40516
10010.83,22.40524
10016.62,22.44084
10022.41,22.4976
10028.19,22.49689
10033.98,22.53439
10039.76,22.57541
10045.55,22.56083
10051.33,22.64362
10057.12,22.65911
10062.9,22.65666
10068.69,22.70735
10074.48,22.67981
10080.26,22.73563
10086.05,22.72609
10091.83,22.76898
10097.62,22.7506
10103.4,22.77464
10109.19,22.78225
10114.97,22.78034
10120.76,22.82121
10126.54,22.84062
10132.33,22.84439
10138.12,22.83434
10143.9,22.88465
10149.69,22.87243
10155.47,22.87791
10161.26,22.85675
10167.04,22.90334
10172.83,22.8974
10178.61,22.94388
10184.4,22.91531
10190.19,22.91728
10195.97,22.94005
10201.76,22.92928
10207.54,22.90979
10213.33,22.97091
10219.11,22.95657
10224.9,22.96783
10230.68,22.95599
10236.47,22.95568
10242.25,22.95429
10248.04,22.96907
10253.83,22.97067
10259.61,22.99505
10265.4,23.00656
10271.18,22.95051
10276.97,22.94806
10282.75,22.94093
10288.54,22.94614
10294.32,22.9531
10300.11,22.94465
10305.9,22.97323
10311.68,22.97559
10317.47,22.93806
10323.25,22.99229
10329.04,22.96236
10334.82,22.9395
10340.61,22.95641
10346.39,22.97809
10352.18,22.94746
10357.96,22.94823
10363.75,22.97448
10369.54,22.89547
10375.32,22.98663
10381.11,22.95789
10386.89,22.92839
10392.68,22.94724
10398.46,22.9402
10404.25,22.91169
10410.03,22.88608
10415.82,22.90071
10421.61,22.88028
10427.39,22.88673
10433.18,22.82899
10438.96,22.84571
10444.75,22.82846
10450.53,22.74421
10456.32,22.83207
10462.1,22.74303
10467.89,22.7789
10473.67,22.77087
10479.46,22.73481
10485.25,22.69863
10491.03,22.64731
10496.82,22.54819
10502.6,22.54877
10508.39,22.51339
10514.17,22.52301
10519.96,22.45542
10525.74,22.3606
10531.53,22.29143
10537.32,22.2079
10543.1,22.25568
10548.89,22.15787
10554.67,22.03485
10560.46,21.96486
10566.24,21.93368
10572.03,21.8014
10577.81,21.70956
10583.6,21.58426
10589.38,21.48182
10595.17,21.43178
10600.96,21.25066
10606.74,21.14018
10612.53,21.02429
10618.31,20.91256
10624.1,20.76967
10629.88,20.52038
10635.67,20.43291
10641.45,20.27236
10647.24,20.0973
10653.03,19.99327
10658.81,19.81503
10664.6,19.67751
10670.38,19.5128
10676.17,19.35858
10681.95,19.28908
10687.74,19.10155
10693.52,19.09623
10699.31,18.97086
10705.09,18.88569
10710.88,18.85382
10716.67,18.83132
10722.45,18.86912
10728.24,18.86515
10734.02,18.89087
10739.81,18.90944
10745.59,18.93929
10751.38,19.01525
10757.16,19.06755
10762.95,19.16919
10768.74,19.2815
10774.52,19.29659
10780.31,19.45119
10786.09,19.50276
10791.88,19.6848
10797.66,19.7936
10803.45,19.94188
10809.23,20.03518
10815.02,20.11916
10820.8,20.25947
10826.59,20.36432
10832.38,20.57254
10838.16,20.70768
10843.95,20.86728
10849.73,20.93988
10855.52,21.0141
10861.3,21.2112
10867.09,21.3112
10872.87,21.41712
10878.66,21.52411
10884.45,21.60818
10890.23,21.69022
10896.02,21.87738
10901.8,22.02895
10907.59,22.07231
10913.37,22.20593
10919.16,22.31433
10924.94,22.40904
10930.73,22.46818
10936.51,22.60412
10942.3,22.6952
10948.09,22.74492
10953.87,22.88271
10959.66,22.95439
10965.44,23.02965
10971.23,23.08792
10977.01,23.20515
10982.8,23.21019
10988.58,23.30669
10994.37,23.35213
11000.16,23.4036
11005.94,23.43059
11011.73,23.46625
11017.51,23.56656
11023.3,23.69201
11029.08,23.72415
11034.87,23.67566
11040.65,23.76572
11046.44,23.722
11052.22,23.84059
11058.01,23.85649
11063.79,23.83307
11069.58,23.88559
11075.37,23.90109
11081.15,23.9833
11086.94,23.95836
11092.72,23.93173
11098.51,23.94794
11104.29,24.01433
11110.08,23.98983
11115.87,24.03279
11121.65,24.01798
11127.44,23.94868
11133.22,24.11541
11139.01,24.10261
11144.79,24.14836
11150.58,24.21531
11156.36,24.1749
11162.15,24.26304
11167.93,24.28627
11173.72,24.30437
11179.5,24.39405
11185.29,24.36324
11191.08,24.44046
11196.86,24.48582
11202.65,24.50385
11208.43,24.61522
11214.22,24.63023
11220.0,24.66176
11225.79,24.65283
11231.58,24.78006
11237.36,24.72648
11243.15,24.82399
11248.93,24.79455
11254.72,24.96967
11260.5,24.91207
11266.29,24.93657
11272.07,25.04109
11277.86,24.99502
11283.64,25.06376
11289.43,25.01168
11295.21,25.16888
11301.0,25.12525
11306.79,25.15021
11312.57,25.18591
11318.36,25.18303
11324.14,25.21118
11329.93,25.3
11335.71,25.28563
11341.5,25.2648
11347.28,25.2645
11353.07,25.28504
11358.86,25.23952
11364.64,25.46028
11370.43,25.38382
11376.21,25.35966
11382.0,25.46205
11387.78,25.49109
11393.57,25.46284
11399.35,25.43319
11405.14,25.58645
11410.92,25.51095
11416.71,25.48562
11422.5,25.57635
11428.28,25.53788
11434.07,25.63421
11439.85,25.60571
11445.64,25.7236
11451.42,25.66882
11457.21,25.65781
11462.99,25.69897
11468.78,25.72051
11474.57,25.74697
11480.35,25.81502
11486.14,25.78555
11491.92,25.79443
11497.71,25.9369
11503.49,25.78536
11509.28,25.84501
11515.06,25.81825
11520.85,25.9207
11526.63,25.91489
11532.42,26.04084
11538.21,25.87847
11543.99,26.06046
11549.78,26.02916
11555.56,25.96599
11561.35,26.06681
11567.13,26.00523
11572.92,25.95155
11578.7,26.04967
11584.49,25.89051
11590.28,26.1743
11596.06,26.04462
11601.85,26.13554
11607.63,26.14784
11613.42,26.14972
11619.2,26.2004
11624.99,26.13973
11630.77,26.19496
11636.56,26.29775
11642.34,26.25482
11648.13,26.14649
11653.92,26.34221
11659.7,26.18164
11665.49,26.35147
11671.27,26.3955
11677.06,26.27738
11682.84,26.30912
11688.63,26.25542
11694.41,26.20457
11700.2,26.16647
11705.99,26.10848
11711.77,26.2487
11717.56,26.3515
11723.34,26.20607
11729.13,26.23397
11734.91,26.3624
11740.7,26.18809
11746.48,26.26782
11752.27,26.03357
11758.05,26.21525
11763.84,26.17315
11769.63,26.29103
11775.41,26.18534
11781.2,26.18001
11786.98,26.32939
11792.77,26.24788
11798.55,26.20468
11804.34,26.19759
11810.12,26.20918
11815.91,26.28
11821.7,26.32003
11827.48,26.3661
11833.27,26.17093
11839.05,26.39796
11844.84,26.30728
11850.62,26.39709
11856.41,26.22669
11862.19,26.28966
11867.98,26.06412
11873.76,26.35341
11879.55,26.21943
11885.34,26.3455
11891.12,26.2975
11896.91,26.25633
11902.69,26.38657
11908.48,26.0656
11914.26,26.26404
11920.05,26.23995
11925.83,26.06279
11931.62,26.3347
11937.41,26.21321
11943.19,26.26536
11948.98,26.10933
11954.76,26.26225
11960.55,26.26062
11966.33,26.25462
11972.12,26.05972
11977.9,26.26618
11983.69,25.94591
11989.47,26.16467
11995.26,26.11951
11999.12,26.07696