File: Data/NIR/S0081LDPE_5.csv
Wavenumber,Intensity
3999.706,2.383012
4005.491,2.379325
4011.277,2.383265
4017.062,2.384529
4022.848,2.38659
4028.633,2.388699
4034.419,2.390882
4040.204,2.396589
4045.99,2.396856
4051.775,2.399646
4057.561,2.401576
4063.346,2.403734
4069.132,2.405422
4074.917,2.405003
4080.703,2.406718
4086.488,2.40526
4092.274,2.408681
4098.059,2.405211
4103.845,2.413035
4109.63,2.411391
4115.416,2.415144
4121.201,2.412289
4126.987,2.416049
4132.772,2.417934
4138.558,2.412952
4144.343,2.417794
4150.129,2.420148
4155.914,2.419445
4161.7,2.421009
4167.485,2.425036
4173.271,2.428479
4179.056,2.434011
4184.842,2.435333
4190.627,2.443652
4196.413,2.449701
4202.198,2.450956
4207.983,2.458919
4213.769,2.466722
4219.555,2.469701
4225.34,2.47276
4231.125,2.48138
4236.911,2.487798
4242.697,2.481577
4248.482,2.479047
4254.268,2.481454
4260.053,2.493199
4265.838,2.495699
4271.624,2.499865
4277.41,2.50725
4283.195,2.510511
4288.98,2.510766
4294.766,2.518094
4300.552,2.517999
4306.337,2.517283
4312.123,2.511698
4317.908,2.497089
4323.693,2.492248
4329.479,2.499795
4335.265,2.500883
4341.05,2.510622
4346.835,2.511152
4352.621,2.520576
4358.407,2.522645
4364.192,2.524905
4369.978,2.530619
4375.763,2.533384
4381.548,2.536708
4387.334,2.541387
4393.12,2.550626
4398.905,2.55829
4404.69,2.57274
4410.476,2.598841
4416.262,2.626726
4422.047,2.662378
4427.833,2.69865
4433.618,2.737601
4439.403,2.786096
4445.189,2.835897
4450.975,2.890148
4456.76,2.949404
4462.545,3.000502
4468.331,3.057628
4474.116,3.106048
4479.902,3.162995
4485.688,3.220983
4491.473,3.274908
4497.258,3.333788
4503.044,3.393017
4508.83,3.452153
4514.615,3.51642
4520.4,3.58097
4526.186,3.635196
4531.971,3.696567
4537.757,3.761363
4543.542,3.824273
4549.328,3.890008
4555.113,3.961082
4560.899,4.034379
4566.685,4.093804
4572.47,4.152504
4578.255,4.198443
4584.041,4.244431
4589.826,4.282811
4595.612,4.316642
4601.397,4.342115
4607.183,4.371981
4612.968,4.392787
4618.754,4.424999
4624.539,4.449506
4630.325,4.475888
4636.11,4.491889
4641.896,4.499679
4647.681,4.501894
4653.467,4.485901
4659.252,4.438709
4665.038,4.395266
4670.823,4.410161
4676.609,4.479122
4682.394,4.544839
4688.18,4.579064
4693.965,4.590767
4699.751,4.595964
4705.536,4.592409
4711.322,4.579454
4717.107,4.561119
4722.893,4.52649
4728.678,4.490375
4734.464,4.473977
4740.249,4.460241
4746.035,4.443653
4751.82,4.421978
4757.605,4.40228
4763.391,4.368144
4769.177,4.322227
4774.962,4.27609
4780.748,4.246597
4786.533,4.233235
4792.319,4.218975
4798.104,4.198998
4803.89,4.173478
4809.675,4.13915
4815.46,4.093832
4821.246,4.050295
4827.032,4.017481
4832.817,3.979884
4838.603,3.938654
4844.388,3.888371
4850.174,3.835465
4855.959,3.787166
4861.745,3.747443
4867.53,3.724809
4873.315,3.723851
4879.101,3.737861
4884.887,3.748351
4890.672,3.765591
4896.458,3.78498
4902.243,3.793813
4908.028,3.803562
4913.814,3.804604
4919.6,3.803541
4925.385,3.800353
4931.17,3.797446
4936.956,3.796606
4942.742,3.781465
4948.527,3.747637
4954.313,3.670505
4960.098,3.575932
4965.883,3.541916
4971.669,3.567157
4977.455,3.596699
4983.24,3.622266
4989.025,3.660636
4994.811,3.707678
5000.597,3.760975
5006.382,3.793754
5012.167,3.81235
5017.953,3.813062
5023.738,3.830546
5029.524,3.854726
5035.31,3.863013
5041.095,3.868856
5046.88,3.87015
5052.666,3.859728
5058.451,3.833809
5064.237,3.823893
5070.022,3.824625
5075.808,3.824242
5081.593,3.818916
5087.379,3.806778
5093.165,3.793271
5098.95,3.785994
5104.735,3.790727
5110.521,3.807541
5116.307,3.821153
5122.092,3.829928
5127.877,3.840752
5133.663,3.847977
5139.448,3.839692
5145.234,3.824094
5151.02,3.804627
5156.805,3.79249
5162.59,3.787249
5168.376,3.791049
5174.161,3.782351
5179.947,3.776958
5185.732,3.771292
5191.518,3.772063
5197.303,3.785883
5203.089,3.786525
5208.874,3.788841
5214.66,3.779247
5220.445,3.780807
5226.231,3.790912
5232.016,3.797642
5237.802,3.807259
5243.587,3.826264
5249.373,3.81886
5255.158,3.829597
5260.944,3.841398
5266.729,3.82808
5272.515,3.818622
5278.3,3.825644
5284.086,3.827653
5289.871,3.834379
5295.657,3.814597
5301.442,3.80357
5307.228,3.788448
5313.013,3.796442
5318.799,3.840676
5324.584,3.874104
5330.37,3.872537
5336.155,3.866955
5341.94,3.827557
5347.726,3.77231
5353.512,3.726076
5359.297,3.677922
5365.083,3.63734
5370.868,3.597831
5376.654,3.573157
5382.439,3.554144
5388.225,3.519277
5394.01,3.490294
5399.796,3.446096
5405.581,3.405783
5411.367,3.363724
5417.152,3.291947
5422.938,3.261199
5428.723,3.245978
5434.509,3.229548
5440.294,3.225536
5446.08,3.204337
5451.865,3.188961
5457.65,3.178112
5463.436,3.164433
5469.222,3.15247
5475.007,3.138577
5480.792,3.104634
5486.578,3.086438
5492.363,3.084833
5498.149,3.081638
5503.935,3.085627
5509.72,3.091295
5515.505,3.104548
5521.291,3.105327
5527.077,3.101069
5532.862,3.100412
5538.647,3.09008
5544.433,3.092382
5550.219,3.083855
5556.004,3.084259
5561.79,3.097729
5567.575,3.119768
5573.36,3.15192
5579.146,3.180367
5584.932,3.210714
5590.717,3.215469
5596.502,3.205492
5602.288,3.17733
5608.073,3.141279
5613.859,3.103619
5619.645,3.074425
5625.43,3.034966
5631.215,3.007032
5637.001,2.970068
5642.786,2.931515
5648.572,2.869403
5654.357,2.798186
5660.143,2.755109
5665.929,2.749642
5671.714,2.76634
5677.5,2.798807
5683.285,2.826727
5689.07,2.858401
5694.856,2.894117
5700.642,2.940003
5706.427,2.987107
5712.212,3.022152
5717.998,3.024613
5723.783,2.983581
5729.569,2.896431
5735.354,2.864603
5741.14,2.843097
5746.925,2.798411
5752.711,2.760715
5758.496,2.730421
5764.282,2.708611
5770.067,2.691539
5775.853,2.690649
5781.638,2.697451
5787.424,2.706823
5793.209,2.715874
5798.995,2.730069
5804.78,2.738213
5810.566,2.754807
5816.352,2.770515
5822.137,2.79431
5827.922,2.822374
5833.708,2.858616
5839.493,2.895647
5845.279,2.950961
5851.064,3.02367
5856.85,3.131921
5862.635,3.281278
5868.421,3.459701
5874.206,3.674819
5879.992,3.918129
5885.777,4.160316
5891.563,4.367015
5897.348,4.517942
5903.134,4.648044
5908.919,4.812657
5914.705,5.04424
5920.49,5.330153
5926.276,5.642878
5932.061,5.942148
5937.847,6.21334
5943.632,6.450264
5949.418,6.659929
5955.203,6.86941
5960.989,7.082088
5966.774,7.309102
5972.56,7.523505
5978.345,7.720902
5984.131,7.903257
5989.916,8.078537
5995.702,8.232224
6001.487,8.384011
6007.272,8.526256
6013.058,8.663328
6018.844,8.794594
6024.629,8.916319
6030.415,9.030041
6036.2,9.134908
6041.985,9.223613
6047.771,9.314723
6053.557,9.388407
6059.342,9.469502
6065.128,9.531819
6070.913,9.600658
6076.698,9.657249
6082.484,9.706003
6088.27,9.753615
6094.055,9.788697
6099.841,9.812801
6105.626,9.842226
6111.412,9.877079
6117.197,9.922686
6122.982,9.969973
6128.768,10.02003
6134.554,10.07824
6140.339,10.1382
6146.125,10.18901
6151.91,10.24634
6157.695,10.2932
6163.481,10.34911
6169.267,10.3961
6175.052,10.4465
6180.837,10.48614
6186.623,10.521
6192.408,10.55521
6198.194,10.59176
6203.979,10.60926
6209.765,10.64117
6215.551,10.66298
6221.336,10.6906
6227.121,10.71173
6232.907,10.72994
6238.692,10.74072
6244.478,10.75291
6250.264,10.75909
6256.049,10.7733
6261.834,10.78157
6267.62,10.79122
6273.405,10.80155
6279.191,10.80622
6284.977,10.82029
6290.762,10.82245
6296.547,10.82417
6302.333,10.83754
6308.118,10.83514
6313.904,10.83507
6319.689,10.82939
6325.475,10.81759
6331.26,10.8054
6337.046,10.79431
6342.831,10.77062
6348.617,10.74699
6354.402,10.71697
6360.188,10.69399
6365.974,10.64635
6371.759,10.58525
6377.544,10.53874
6383.33,10.51822
6389.115,10.49895
6394.901,10.48511
6400.687,10.44975
6406.472,10.38368
6412.257,10.31171
6418.043,10.25403
6423.828,10.21432
6429.614,10.18543
6435.399,10.15055
6441.185,10.08604
6446.97,9.999594
6452.756,9.894481
6458.541,9.787049
6464.327,9.607739
6470.112,9.339373
6475.897,9.036911
6481.684,8.850227
6487.469,8.857641
6493.254,8.954023
6499.04,9.04779
6504.825,9.13617
6510.61,9.206213
6516.396,9.265826
6522.182,9.313081
6527.967,9.35465
6533.753,9.392693
6539.538,9.420432
6545.324,9.445639
6551.109,9.463731
6556.895,9.480238
6562.68,9.506217
6568.466,9.5375
6574.251,9.569318
6580.037,9.588348
6585.822,9.608886
6591.607,9.619552
6597.393,9.62412
6603.179,9.623836
6608.964,9.618886
6614.75,9.615672
6620.535,9.59936
6626.32,9.586809
6632.106,9.56604
6637.892,9.542977
6643.677,9.518536
6649.463,9.491483
6655.248,9.461043
6661.034,9.422634
6666.819,9.386371
6672.604,9.347012
6678.39,9.307028
6684.176,9.26201
6689.961,9.210518
6695.747,9.162788
6701.532,9.100133
6707.317,9.043577
6713.103,8.982854
6718.889,8.916052
6724.674,8.863313
6730.459,8.801284
6736.245,8.745616
6742.03,8.684806
6747.816,8.620803
6753.602,8.562926
6759.387,8.505915
6765.173,8.435077
6770.958,8.365132
6776.743,8.286695
6782.529,8.191895
6788.314,8.089031
6794.1,7.973062
6799.886,7.856306
6805.671,7.740664
6811.457,7.632502
6817.242,7.525082
6823.027,7.40313
6828.813,7.275356
6834.599,7.171277
6840.384,7.113113
6846.169,7.057191
6851.955,6.997795
6857.74,6.93077
6863.526,6.871336
6869.312,6.809928
6875.097,6.737255
6880.882,6.654575
6886.668,6.567701
6892.453,6.481328
6898.239,6.394632
6904.024,6.333322
6909.81,6.275562
6915.596,6.207829
6921.381,6.127192
6927.166,6.037364
6932.952,5.928877
6938.737,5.804584
6944.523,5.697623
6950.309,5.624874
6956.094,5.601573
6961.879,5.596732
6967.665,5.589912
6973.45,5.583662
6979.236,5.577199
6985.021,5.56248
6990.807,5.535549
6996.592,5.49453
7002.378,5.44596
7008.163,5.393491
7013.949,5.344559
7019.734,5.292312
7025.52,5.275313
7031.305,5.273087
7037.091,5.291716
7042.876,5.275242
7048.662,5.207
7054.447,5.090033
7060.232,4.961135
7066.019,4.954897
7071.804,5.085745
7077.589,5.271582
7083.375,5.424477
7089.16,5.525437
7094.946,5.614227
7100.731,5.717055
7106.517,5.835464
7112.302,5.952423
7118.088,6.090733
7123.873,6.175259
7129.659,6.211193
7135.444,6.177997
7141.229,6.092118
7147.015,5.944623
7152.801,5.718958
7158.586,5.373537
7164.372,4.894786
7170.157,4.543118
7175.942,4.554615
7181.729,4.797579
7187.514,5.099245
7193.299,5.401976
7199.085,5.695458
7204.87,6.003421
7210.655,6.273614
7216.441,6.517254
7222.227,6.772959
7228.012,7.049991
7233.798,7.295424
7239.583,7.530355
7245.369,7.742706
7251.154,7.974145
7256.939,8.191568
7262.725,8.421615
7268.511,8.630679
7274.296,8.848948
7280.082,9.059108
7285.867,9.267103
7291.652,9.472327
7297.438,9.667592
7303.224,9.852943
7309.009,10.05633
7314.794,10.23174
7320.58,10.39403
7326.365,10.55401
7332.151,10.64563
7337.937,10.76161
7343.722,10.82819
7349.508,10.90123
7355.293,11.01355
7361.079,11.10111
7366.864,11.21031
7372.649,11.29772
7378.435,11.40032
7384.221,11.47863
7390.006,11.55135
7395.792,11.60979
7401.577,11.65553
7407.362,11.69446
7413.148,11.72917
7418.934,11.76234
7424.719,11.77651
7430.504,11.80316
7436.29,11.80988
7442.075,11.83075
7447.861,11.84245
7453.646,11.86337
7459.432,11.87326
7465.218,11.87814
7471.003,11.89146
7476.788,11.89247
7482.574,11.90142
7488.359,11.90309
7494.145,11.9032
7499.931,11.8921
7505.716,11.88618
7511.501,11.88098
7517.287,11.87634
7523.072,11.87234
7528.858,11.8643
7534.644,11.85587
7540.429,11.83865
7546.214,11.8273
7552.0,11.80915
7557.785,11.80215
7563.571,11.78582
7569.356,11.76731
7575.142,11.7514
7580.927,11.73368
7586.713,11.71927
7592.498,11.70453
7598.284,11.68504
7604.069,11.65371
7609.854,11.6353
7615.641,11.60729
7621.426,11.57632
7627.211,11.54447
7632.997,11.51394
7638.782,11.47848
7644.568,11.4489
7650.354,11.42538
7656.139,11.38442
7661.924,11.36843
7667.71,11.35038
7673.495,11.31161
7679.281,11.29934
7685.066,11.27859
7690.852,11.26395
7696.637,11.24162
7702.423,11.22553
7708.208,11.20821
7713.994,11.18241
7719.779,11.14895
7725.564,11.14
7731.35,11.10996
7737.136,11.09546
7742.921,11.07764
7748.707,11.05518
7754.492,11.0244
7760.277,10.9926
7766.063,10.9745
7771.849,10.93966
7777.634,10.92107
7783.42,10.91226
7789.205,10.88724
7794.991,10.87633
7800.776,10.8534
7806.562,10.81275
7812.347,10.79318
7818.133,10.76858
7823.918,10.7466
7829.704,10.71674
7835.489,10.67874
7841.274,10.64759
7847.06,10.60755
7852.846,10.5769
7858.631,10.53526
7864.417,10.49244
7870.202,10.45133
7875.987,10.40418
7881.773,10.34714
7887.559,10.3067
7893.344,10.24144
7899.13,10.18547
7904.915,10.13438
7910.7,10.083
7916.486,10.02489
7922.271,9.957803
7928.057,9.901496
7933.843,9.823514
7939.628,9.754671
7945.414,9.683567
7951.199,9.60953
7956.984,9.527568
7962.77,9.447405
7968.556,9.351006
7974.341,9.268613
7980.126,9.18762
7985.912,9.094833
7991.697,9.007486
7997.483,8.901546
8003.269,8.803458
8009.054,8.712026
8014.839,8.599613
8020.625,8.489743
8026.41,8.376721
8032.196,8.254188
8037.981,8.132879
8043.767,8.016694
8049.553,7.889312
8055.338,7.754392
8061.124,7.628195
8066.909,7.496414
8072.694,7.354095
8078.48,7.2157
8084.266,7.068717
8090.051,6.927229
8095.836,6.778437
8101.622,6.619322
8107.407,6.463151
8113.192,6.292297
8118.979,6.129017
8124.764,5.962031
8130.55,5.782255
8136.335,5.609486
8142.12,5.449463
8147.906,5.268878
8153.691,5.1083
8159.477,4.933826
8165.263,4.762366
8171.048,4.601699
8176.833,4.449963
8182.619,4.30557
8188.404,4.177191
8194.189,4.068761
8199.976,3.990028
8205.761,3.92608
8211.546,3.876511
8217.332,3.845702
8223.117,3.833361
8228.902,3.833209
8234.688,3.831992
8240.474,3.842797
8246.259,3.851538
8252.045,3.883582
8257.83,3.892567
8263.616,3.952215
8269.401,3.998237
8275.187,4.068841
8280.973,4.13032
8286.758,4.219797
8292.543,4.311498
8298.329,4.412928
8304.114,4.522002
8309.899,4.620253
8315.686,4.730323
8321.471,4.820848
8327.256,4.920516
8333.042,5.023149
8338.827,5.145504
8344.612,5.268016
8350.398,5.405485
8356.184,5.533645
8361.969,5.669788
8367.755,5.786766
8373.54,5.908431
8379.325,6.035095
8385.111,6.122898
8390.896,6.214505
8396.683,6.296818
8402.468,6.345432
8408.253,6.390998
8414.039,6.394058
8419.824,6.419215
8425.609,6.471488
8431.396,6.55275
8437.181,6.675677
8442.966,6.825426
8448.752,6.980603
8454.537,7.149632
8460.322,7.308663
8466.108,7.414708
8471.894,7.565863
8477.679,7.695209
8483.465,7.818442
8489.25,7.950134
8495.035,8.05574
8500.821,8.157711
8506.606,8.234794
8512.392,8.286758
8518.178,8.334045
8523.963,8.410244
8529.748,8.461358
8535.534,8.487086
8541.319,8.465949
8547.105,8.391286
8552.891,8.273034
8558.676,8.157391
8564.462,8.090876
8570.247,8.192913
8576.032,8.338945
8581.818,8.516788
8587.604,8.703978
8593.389,8.927662
8599.175,9.154434
8604.96,9.377956
8610.745,9.588832
8616.531,9.790722
8622.316,9.980426
8628.102,10.15897
8633.888,10.31071
8639.673,10.45063
8645.458,10.58578
8651.244,10.68379
8657.029,10.79247
8662.814,10.89182
8668.601,10.97719
8674.386,11.06078
8680.172,11.13225
8685.957,11.21787
8691.742,11.31307
8697.528,11.41796
8703.313,11.5243
8709.099,11.62832
8714.885,11.72494
8720.67,11.85337
8726.455,11.95688
8732.241,12.05241
8738.026,12.15228
8743.812,12.25072
8749.598,12.34658
8755.383,12.43071
8761.168,12.50683
8766.954,12.5838
8772.739,12.6472
8778.524,12.70235
8784.311,12.77032
8790.096,12.80677
8795.881,12.84919
8801.667,12.89685
8807.452,12.94062
8813.237,12.96651
8819.023,12.98695
8824.809,13.01464
8830.595,13.04589
8836.38,13.05032
8842.165,13.08521
8847.951,13.06971
8853.736,13.09621
8859.521,13.10644
8865.308,13.12752
8871.093,13.13087
8876.878,13.13216
8882.664,13.14685
8888.449,13.12842
8894.234,13.13844
8900.021,13.13427
8905.806,13.14199
8911.591,13.12719
8917.377,13.1228
8923.162,13.12423
8928.947,13.12446
8934.733,13.12401
8940.519,13.11124
8946.304,13.11527
8952.09,13.10886
8957.875,13.10491
8963.661,13.11094
8969.446,13.10732
8975.231,13.11171
8981.018,13.13508
8986.803,13.11843
8992.588,13.13222
8998.374,13.13395
9004.159,13.16259
9009.944,13.14665
9015.73,13.16395
9021.516,13.15161
9027.301,13.15739
9033.087,13.16458
9038.872,13.1645
9044.657,13.1824
9050.443,13.17914
9056.229,13.19447
9062.014,13.18652
9067.8,13.20391
9073.585,13.20403
9079.37,13.18676
9085.156,13.20045
9090.941,13.19288
9096.727,13.21029
9102.513,13.1963
9108.298,13.205
9114.084,13.19852
9119.869,13.18302
9125.654,13.1843
9131.44,13.18771
9137.226,13.18365
9143.011,13.16029
9148.797,13.15358
9154.582,13.13655
9160.367,13.16168
9166.153,13.12179
9171.938,13.12521
9177.724,13.12338
9183.51,13.11999
9189.295,13.09885
9195.08,13.06524
9200.866,13.08253
9206.651,13.07844
9212.437,13.07449
9218.223,13.05929
9224.008,13.05241
9229.793,13.04459
9235.579,13.02669
9241.364,13.03163
9247.15,13.00842
9252.936,13.01482
9258.721,13.00817
9264.507,12.97286
9270.292,12.98985
9276.077,12.96296
9281.863,12.95673
9287.648,12.93458
9293.434,12.93217
9299.22,12.94271
9305.005,12.93465
9310.79,12.94218
9316.576,12.94399
9322.361,12.94276
9328.146,12.93751
9333.933,12.93471
9339.718,12.93127
9345.503,12.92062
9351.289,12.91837
9357.074,12.90464
9362.859,12.89636
9368.646,12.86629
9374.431,12.86253
9380.217,12.85453
9386.002,12.83743
9391.787,12.80578
9397.573,12.7959
9403.358,12.78701
9409.144,12.75303
9414.93,12.7402
9420.715,12.72601
9426.5,12.72578
9432.286,12.67467
9438.071,12.66556
9443.856,12.65294
9449.643,12.65165
9455.428,12.60796
9461.213,12.56125
9466.999,12.55724
9472.784,12.52724
9478.569,12.52621
9484.355,12.52896
9490.141,12.49559
9495.926,12.48744
9501.712,12.46222
9507.497,12.45061
9513.282,12.43521
9519.068,12.43795
9524.854,12.39919
9530.64,12.38474
9536.425,12.3823
9542.21,12.35428
9547.996,12.34771
9553.781,12.3313
9559.566,12.30589
9565.353,12.29497
9571.138,12.27151
9576.923,12.25719
9582.709,12.24936
9588.494,12.26287
9594.279,12.22983
9600.065,12.24417
9605.851,12.25002
9611.636,12.24981
9617.422,12.29345
9623.207,12.30129
9628.992,12.32702
9634.778,12.33977
9640.563,12.37132
9646.349,12.38802
9652.135,12.42405
9657.92,12.47386
9663.706,12.49055
9669.491,12.50892
9675.276,12.55546
9681.063,12.57897
9686.848,12.56162
9692.633,12.62759
9698.419,12.67044
9704.204,12.68344
9709.989,12.71915
9715.775,12.77062
9721.561,12.76386
9727.346,12.80478
9733.132,12.8074
9738.917,12.86537
9744.702,12.86325
9750.488,12.88883
9756.273,12.91915
9762.059,12.93998
9767.845,12.93025
9773.63,12.97676
9779.415,12.96431
9785.201,12.9832
9790.986,12.95866
9796.771,12.96627
9802.558,12.93478
9808.343,12.98501
9814.129,12.98799
9819.914,12.97419
9825.699,12.99483
9831.485,12.99858
9837.271,13.01485
9843.056,13.06533
9848.842,13.08127
9854.627,13.0922
9860.412,13.14415
9866.198,13.17198
9871.983,13.19741
9877.769,13.23761
9883.555,13.22946
9889.34,13.30706
9895.125,13.29893
9900.911,13.35653
9906.696,13.39202
9912.481,13.39914
9918.268,13.41483
9924.053,13.44676
9929.838,13.46948
9935.624,13.53154
9941.409,13.53445
9947.195,13.52481
9952.98,13.57674
9958.766,13.60036
9964.552,13.61932
9970.337,13.64082
9976.122,13.62923
9981.908,13.66606
9987.693,13.69002
9993.479,13.69538
9999.265,13.69881
10005.05,13.70383
10010.83,13.74024
10016.62,13.72257
10022.41,13.74694
10028.19,13.75743
10033.98,13.76881
10039.76,13.78183
10045.55,13.80121
10051.33,13.83715
10057.12,13.83818
10062.9,13.88255
10068.69,13.89606
10074.48,13.8513
10080.26,13.87253
10086.05,13.89498
10091.83,13.91159
10097.62,13.89042
10103.4,13.88885
10109.19,13.88539
10114.97,13.90646
10120.76,13.92916
10126.54,13.95096
10132.33,13.96115
10138.12,13.95711
10143.9,13.98838
10149.69,13.93782
10155.47,13.96259
10161.26,13.94693
10167.04,13.94163
10172.83,13.95076
10178.61,13.96054
10184.4,13.95082
10190.19,13.95525
10195.97,13.96866
10201.76,13.9337
10207.54,13.97063
10213.33,14.00352
10219.11,13.9425
10224.9,13.98294
10230.68,13.96934
10236.47,13.94785
10242.25,13.95714
10248.04,13.99417
10253.83,13.96229
10259.61,13.96893
10265.4,13.97269
10271.18,13.96977
10276.97,13.89826
10282.75,13.90579
10288.54,13.95286
10294.32,13.91356
10300.11,13.92684
10305.9,13.92802
10311.68,13.93523
10317.47,13.88167
10323.25,13.91888
10329.04,13.92407
10334.82,13.87686
10340.61,13.8894
10346.39,13.9046
10352.18,13.87299
10357.96,13.84393
10363.75,13.89645
10369.54,13.85952
10375.32,13.89778
10381.11,13.86335
10386.89,13.85044
10392.68,13.86907
10398.46,13.80537
10404.25,13.83671
10410.03,13.81883
10415.82,13.85814
10421.61,13.78735
10427.39,13.78148
10433.18,13.70421
10438.96,13.77058
10444.75,13.70946
10450.53,13.68814
10456.32,13.73434
10462.1,13.67145
10467.89,13.70262
10473.67,13.65508
10479.46,13.64469
10485.25,13.63101
10491.03,13.57249
10496.82,13.5219
10502.6,13.52461
10508.39,13.51832
10514.17,13.49301
10519.96,13.46066
10525.74,13.43915
10531.53,13.31295
10537.32,13.30983
10543.1,13.33571
10548.89,13.22864
10554.67,13.20686
10560.46,13.12978
10566.24,13.07691
10572.03,13.02771
10577.81,12.92765
10583.6,12.84864
10589.38,12.77126
10595.17,12.75205
10600.96,12.61362
10606.74,12.51501
10612.53,12.48107
10618.31,12.36671
10624.1,12.32759
10629.88,12.17804
10635.67,12.1016
10641.45,11.97534
10647.24,11.83831
10653.03,11.76992
10658.81,11.65923
10664.6,11.55657
10670.38,11.4968
10676.17,11.35036
10681.95,11.29862
10687.74,11.15155
10693.52,11.17514
10699.31,11.12183
10705.09,11.06402
10710.88,11.00692
10716.67,11.07423
10722.45,11.0728
10728.24,10.98226
10734.02,11.0731
10739.81,11.03405
10745.59,11.0601
10751.38,11.10951
10757.16,11.1378
10762.95,11.15162
10768.74,11.18557
10774.52,11.24172
10780.31,11.29456
10786.09,11.39028
10791.88,11.46399
10797.66,11.54051
10803.45,11.62655
10809.23,11.63673
10815.02,11.70539
10820.8,11.78184
10826.59,11.81492
10832.38,11.9617
10838.16,12.07817
10843.95,12.10266
10849.73,12.21822
10855.52,12.24242
10861.3,12.32987
10867.09,12.3336
10872.87,12.47038
10878.66,12.50357
10884.45,12.56103
10890.23,12.58234
10896.02,12.68477
10901.8,12.75573
10907.59,12.80384
10913.37,12.84276
10919.16,12.96131
10924.94,13.02226
10930.73,13.03389
10936.51,13.13307
10942.3,13.16712
10948.09,13.18819
10953.87,13.26272
10959.66,13.29949
10965.44,13.3896
10971.23,13.39617
10977.01,13.40359
10982.8,13.50927
10988.58,13.50539
10994.37,13.6042
11000.16,13.60067
11005.94,13.61329
11011.73,13.67286
11017.51,13.65257
11023.3,13.81397
11029.08,13.71381
11034.87,13.72906
11040.65,13.86163
11046.44,13.83287
11052.22,13.89958
11058.01,13.8372
11063.79,13.85412
11069.58,13.93461
11075.37,13.94253
11081.15,13.95638
11086.94,13.90358
11092.72,13.9431
11098.51,14.03264
11104.29,14.06448
11110.08,13.99174
11115.87,13.96107
11121.65,14.05326
11127.44,13.96444
11133.22,14.07762
11139.01,14.1048
11144.79,14.11098
11150.58,14.12269
11156.36,14.10052
11162.15,14.10695
11167.93,14.1006
11173.72,14.23118
11179.5,14.24952
11185.29,14.23112
11191.08,14.23115
11196.86,14.20443
11202.65,14.25485
11208.43,14.35757
11214.22,14.35764
11220.0,14.33794
11225.79,14.39408
11231.58,14.47795
11237.36,14.37584
11243.15,14.44055
11248.93,14.34968
11254.72,14.48536
11260.5,14.50565
11266.29,14.41862
11272.07,14.59398
11277.86,14.49937
11283.64,14.53142
11289.43,14.50121
11295.21,14.59347
11301.0,14.48475
11306.79,14.61867
11312.57,14.62695
11318.36,14.56412
11324.14,14.62761
11329.93,14.71633
11335.71,14.66413
11341.5,14.64476
11347.28,14.70148
11353.07,14.61771
11358.86,14.65307
11364.64,14.7847
11370.43,14.72847
11376.21,14.67565
11382.0,14.71164
11387.78,14.82264
11393.57,14.74656
11399.35,14.71654
11405.14,14.80806
11410.92,14.77185
11416.71,14.73908
11422.5,14.79746
11428.28,14.83409
11434.07,14.89457
11439.85,14.94121
11445.64,14.82843
11451.42,14.79854
11457.21,14.89527
11462.99,14.8572
11468.78,14.87148
11474.57,14.88692
11480.35,14.9827
11486.14,14.85471
11491.92,14.86166
11497.71,14.93531
11503.49,14.92384
11509.28,14.96101
11515.06,14.89395
11520.85,14.98019
11526.63,14.93898
11532.42,14.99276
11538.21,14.98058
11543.99,14.97736
11549.78,14.94214
11555.56,14.93359
11561.35,15.035
11567.13,15.0201
11572.92,14.95687
11578.7,15.11871
11584.49,14.91383
11590.28,15.10908
11596.06,14.9515
11601.85,14.94358
11607.63,15.12924
11613.42,14.95753
11619.2,15.0856
11624.99,15.09474
11630.77,15.09182
11636.56,15.11569
11642.34,15.11094
11648.13,15.05858
11653.92,15.06408
11659.7,15.09723
11665.49,15.04373
11671.27,15.16438
11677.06,15.00176
11682.84,14.94599
11688.63,15.03436
11694.41,15.03626
11700.2,14.92729
11705.99,15.01453
11711.77,15.08954
11717.56,15.11182
11723.34,14.93862
11729.13,14.99272
11734.91,15.18554
11740.7,15.07114
11746.48,15.04241
11752.27,15.00047
11758.05,15.02043
11763.84,15.02455
11769.63,15.11305
11775.41,15.01451
11781.2,15.01388
11786.98,15.01082
11792.77,14.92387
11798.55,15.01699
11804.34,14.8549
11810.12,14.9001
11815.91,14.99673
11821.7,14.99669
11827.48,15.03827
11833.27,14.86038
11839.05,14.98343
11844.84,14.76466
11850.62,14.917
11856.41,14.98118
11862.19,14.96364
11867.98,14.74469
11873.76,14.81214
11879.55,14.82219
11885.34,14.80379
11891.12,14.87695
11896.91,14.83553
11902.69,14.86994
11908.48,14.59645
11914.26,14.67676
11920.05,14.89554
11925.83,14.59589
11931.62,14.67906
11937.41,14.72692
11943.19,14.71422
11948.98,14.52897
11954.76,14.523
11960.55,14.58512
11966.33,14.56125
11972.12,14.58253
11977.9,14.65952
11983.69,14.5082
11989.47,14.49266
11995.26,14.51353
11999.12,14.63612