File: Data/NIR/S0081LDPE_3.csv
Wavenumber,Intensity
3999.706,3.22948
4005.491,3.237068
4011.277,3.237932
4017.062,3.240537
4022.848,3.238477
4028.633,3.246493
4034.419,3.247576
4040.204,3.247602
4045.99,3.247282
4051.775,3.255141
4057.561,3.253932
4063.346,3.255554
4069.132,3.258017
4074.917,3.262701
4080.703,3.263728
4086.488,3.265872
4092.274,3.262289
4098.059,3.265062
4103.845,3.270293
4109.63,3.26609
4115.416,3.269683
4121.201,3.26705
4126.987,3.273543
4132.772,3.271606
4138.558,3.277236
4144.343,3.278099
4150.129,3.276414
4155.914,3.280722
4161.7,3.282438
4167.485,3.284444
4173.271,3.29081
4179.056,3.294076
4184.842,3.300776
4190.627,3.303923
4196.413,3.311699
4202.198,3.321475
4207.983,3.324701
4213.769,3.33409
4219.555,3.341376
4225.34,3.34762
4231.125,3.354782
4236.911,3.35733
4242.697,3.355575
4248.482,3.353651
4254.268,3.350656
4260.053,3.360669
4265.838,3.376953
4271.624,3.379929
4277.41,3.387222
4283.195,3.385977
4288.98,3.390073
4294.766,3.39694
4300.552,3.397389
4306.337,3.391105
4312.123,3.392402
4317.908,3.378141
4323.693,3.36485
4329.479,3.374021
4335.265,3.382088
4341.05,3.38578
4346.835,3.392847
4352.621,3.397952
4358.407,3.407314
4364.192,3.408221
4369.978,3.409551
4375.763,3.410817
4381.548,3.421654
4387.334,3.423695
4393.12,3.432419
4398.905,3.445326
4404.69,3.46535
4410.476,3.492198
4416.262,3.531975
4422.047,3.566009
4427.833,3.609265
4433.618,3.647699
4439.403,3.692977
4445.189,3.741886
4450.975,3.795017
4456.76,3.850102
4462.545,3.896139
4468.331,3.940951
4474.116,3.98526
4479.902,4.036513
4485.688,4.077256
4491.473,4.125746
4497.258,4.172639
4503.044,4.222226
4508.83,4.269287
4514.615,4.320667
4520.4,4.370963
4526.186,4.420717
4531.971,4.468305
4537.757,4.520787
4543.542,4.575135
4549.328,4.628588
4555.113,4.686383
4560.899,4.742508
4566.685,4.794022
4572.47,4.837643
4578.255,4.877325
4584.041,4.913505
4589.826,4.940434
4595.612,4.967489
4601.397,4.994488
4607.183,5.018436
4612.968,5.031498
4618.754,5.057273
4624.539,5.083456
4630.325,5.105051
4636.11,5.115648
4641.896,5.123997
4647.681,5.124139
4653.467,5.111819
4659.252,5.079162
4665.038,5.041403
4670.823,5.058706
4676.609,5.116652
4682.394,5.166756
4688.18,5.195314
4693.965,5.204228
4699.751,5.208477
4705.536,5.214441
4711.322,5.203183
4717.107,5.185481
4722.893,5.162149
4728.678,5.139162
4734.464,5.126362
4740.249,5.11642
4746.035,5.103022
4751.82,5.088111
4757.605,5.071123
4763.391,5.048354
4769.177,5.017302
4774.962,4.975754
4780.748,4.95737
4786.533,4.946896
4792.319,4.936732
4798.104,4.924536
4803.89,4.902221
4809.675,4.873067
4815.46,4.836555
4821.246,4.805968
4827.032,4.778936
4832.817,4.748759
4838.603,4.720623
4844.388,4.68036
4850.174,4.635531
4855.959,4.59802
4861.745,4.568182
4867.53,4.548751
4873.315,4.547849
4879.101,4.559593
4884.887,4.571549
4890.672,4.586849
4896.458,4.594793
4902.243,4.605657
4908.028,4.61548
4913.814,4.616735
4919.6,4.619546
4925.385,4.613602
4931.17,4.613096
4936.956,4.613146
4942.742,4.595057
4948.527,4.569516
4954.313,4.511805
4960.098,4.431601
4965.883,4.407151
4971.669,4.429073
4977.455,4.449949
4983.24,4.473719
4989.025,4.506918
4994.811,4.541815
5000.597,4.581669
5006.382,4.614279
5012.167,4.62337
5017.953,4.630949
5023.738,4.64175
5029.524,4.660443
5035.31,4.669264
5041.095,4.67169
5046.88,4.676512
5052.666,4.664148
5058.451,4.649078
5064.237,4.641172
5070.022,4.639403
5075.808,4.638823
5081.593,4.63498
5087.379,4.627126
5093.165,4.618204
5098.95,4.613673
5104.735,4.620071
5110.521,4.630369
5116.307,4.641465
5122.092,4.648638
5127.877,4.658317
5133.663,4.665299
5139.448,4.661858
5145.234,4.650594
5151.02,4.634973
5156.805,4.624042
5162.59,4.619267
5168.376,4.62449
5174.161,4.61333
5179.947,4.613062
5185.732,4.611247
5191.518,4.608864
5197.303,4.620223
5203.089,4.62028
5208.874,4.623861
5214.66,4.612459
5220.445,4.619167
5226.231,4.629769
5232.016,4.634034
5237.802,4.638176
5243.587,4.65394
5249.373,4.655208
5255.158,4.65776
5260.944,4.663803
5266.729,4.66083
5272.515,4.648985
5278.3,4.651851
5284.086,4.662393
5289.871,4.664887
5295.657,4.646091
5301.442,4.637059
5307.228,4.630486
5313.013,4.629933
5318.799,4.661284
5324.584,4.690885
5330.37,4.696266
5336.155,4.692686
5341.94,4.655725
5347.726,4.614095
5353.512,4.581563
5359.297,4.535998
5365.083,4.50431
5370.868,4.473846
5376.654,4.453971
5382.439,4.435861
5388.225,4.405853
5394.01,4.3844
5399.796,4.341363
5405.581,4.311069
5411.367,4.271004
5417.152,4.210183
5422.938,4.184705
5428.723,4.175207
5434.509,4.157069
5440.294,4.152411
5446.08,4.139608
5451.865,4.119385
5457.65,4.113007
5463.436,4.104185
5469.222,4.087878
5475.007,4.071322
5480.792,4.042869
5486.578,4.030522
5492.363,4.018487
5498.149,4.017488
5503.935,4.023225
5509.72,4.030241
5515.505,4.037663
5521.291,4.045527
5527.077,4.041545
5532.862,4.038291
5538.647,4.033823
5544.433,4.025678
5550.219,4.023604
5556.004,4.021456
5561.79,4.03513
5567.575,4.05622
5573.36,4.079487
5579.146,4.114605
5584.932,4.139975
5590.717,4.141916
5596.502,4.135592
5602.288,4.112578
5608.073,4.078716
5613.859,4.043145
5619.645,4.007505
5625.43,3.978594
5631.215,3.94944
5637.001,3.916388
5642.786,3.8691
5648.572,3.805397
5654.357,3.722561
5660.143,3.67894
5665.929,3.67384
5671.714,3.696084
5677.5,3.731796
5683.285,3.76397
5689.07,3.79364
5694.856,3.830347
5700.642,3.881536
5706.427,3.935324
5712.212,3.961228
5717.998,3.96736
5723.783,3.922436
5729.569,3.837362
5735.354,3.808102
5741.14,3.777764
5746.925,3.726884
5752.711,3.684915
5758.496,3.648993
5764.282,3.624217
5770.067,3.606562
5775.853,3.606233
5781.638,3.607538
5787.424,3.623063
5793.209,3.633362
5798.995,3.64218
5804.78,3.659549
5810.566,3.675622
5816.352,3.698709
5822.137,3.719797
5827.922,3.751269
5833.708,3.788458
5839.493,3.831057
5845.279,3.888599
5851.064,3.969182
5856.85,4.066999
5862.635,4.201889
5868.421,4.365001
5874.206,4.545483
5879.992,4.749844
5885.777,4.947107
5891.563,5.113674
5897.348,5.230092
5903.134,5.331294
5908.919,5.464808
5914.705,5.644779
5920.49,5.873594
5926.276,6.12042
5932.061,6.354597
5937.847,6.569944
5943.632,6.75876
5949.418,6.924181
5955.203,7.090264
5960.989,7.260638
5966.774,7.445213
5972.56,7.615694
5978.345,7.777699
5984.131,7.925983
5989.916,8.064441
5995.702,8.196964
6001.487,8.315175
6007.272,8.434622
6013.058,8.550378
6018.844,8.659666
6024.629,8.76029
6030.415,8.850172
6036.2,8.939436
6041.985,9.015449
6047.771,9.082384
6053.557,9.159931
6059.342,9.218742
6065.128,9.27451
6070.913,9.332652
6076.698,9.377648
6082.484,9.424767
6088.27,9.459926
6094.055,9.49073
6099.841,9.516475
6105.626,9.539018
6111.412,9.566186
6117.197,9.601166
6122.982,9.644629
6128.768,9.691463
6134.554,9.735909
6140.339,9.789535
6146.125,9.832645
6151.91,9.877085
6157.695,9.922574
6163.481,9.968224
6169.267,10.01028
6175.052,10.04938
6180.837,10.08802
6186.623,10.12521
6192.408,10.14407
6198.194,10.17461
6203.979,10.20071
6209.765,10.22415
6215.551,10.24509
6221.336,10.26104
6227.121,10.2826
6232.907,10.30274
6238.692,10.3147
6244.478,10.32336
6250.264,10.3342
6256.049,10.34159
6261.834,10.35084
6267.62,10.35384
6273.405,10.36696
6279.191,10.3714
6284.977,10.38032
6290.762,10.38537
6296.547,10.38421
6302.333,10.39339
6308.118,10.39495
6313.904,10.3985
6319.689,10.39615
6325.475,10.38537
6331.26,10.3798
6337.046,10.36488
6342.831,10.34473
6348.617,10.32538
6354.402,10.30099
6360.188,10.27604
6365.974,10.24338
6371.759,10.19631
6377.544,10.15533
6383.33,10.13533
6389.115,10.12354
6394.901,10.10793
6400.687,10.07504
6406.472,10.02315
6412.257,9.962786
6418.043,9.912106
6423.828,9.887952
6429.614,9.859066
6435.399,9.832922
6441.185,9.774095
6446.97,9.7061
6452.756,9.626609
6458.541,9.516742
6464.327,9.372343
6470.112,9.147456
6475.897,8.893321
6481.684,8.748414
6487.469,8.754429
6493.254,8.830775
6499.04,8.911263
6504.825,8.984991
6510.61,9.050868
6516.396,9.092762
6522.182,9.134033
6527.967,9.169073
6533.753,9.198769
6539.538,9.215173
6545.324,9.245118
6551.109,9.264247
6556.895,9.281958
6562.68,9.291829
6568.466,9.321825
6574.251,9.351494
6580.037,9.379612
6585.822,9.384759
6591.607,9.388838
6597.393,9.397237
6603.179,9.397895
6608.964,9.395325
6614.75,9.392258
6620.535,9.379539
6626.32,9.370186
6632.106,9.353213
6637.892,9.33363
6643.677,9.311654
6649.463,9.297256
6655.248,9.265639
6661.034,9.242587
6666.819,9.194863
6672.604,9.179617
6678.39,9.140355
6684.176,9.102081
6689.961,9.060691
6695.747,9.018703
6701.532,8.972697
6707.317,8.924185
6713.103,8.872069
6718.889,8.817485
6724.674,8.763566
6730.459,8.716637
6736.245,8.67065
6742.03,8.62969
6747.816,8.569357
6753.602,8.529408
6759.387,8.473797
6765.173,8.435519
6770.958,8.369035
6776.743,8.305763
6782.529,8.219978
6788.314,8.138655
6794.1,8.04792
6799.886,7.95105
6805.671,7.853647
6811.457,7.76995
6817.242,7.681093
6823.027,7.583458
6828.813,7.483364
6834.599,7.401248
6840.384,7.345038
6846.169,7.297829
6851.955,7.251318
6857.74,7.199382
6863.526,7.154589
6869.312,7.099696
6875.097,7.049337
6880.882,6.979983
6886.668,6.903139
6892.453,6.839324
6898.239,6.770852
6904.024,6.718858
6909.81,6.673371
6915.596,6.624053
6921.381,6.558085
6927.166,6.482861
6932.952,6.396858
6938.737,6.301839
6944.523,6.216767
6950.309,6.154783
6956.094,6.133757
6961.879,6.132882
6967.665,6.121662
6973.45,6.132309
6979.236,6.116862
6985.021,6.103506
6990.807,6.084792
6996.592,6.051578
7002.378,6.015825
7008.163,5.968027
7013.949,5.922794
7019.734,5.886762
7025.52,5.864901
7031.305,5.882838
7037.091,5.888768
7042.876,5.881247
7048.662,5.822818
7054.447,5.722124
7060.232,5.623335
7066.019,5.61635
7071.804,5.727394
7077.589,5.871645
7083.375,5.988992
7089.16,6.075531
7094.946,6.147875
7100.731,6.215703
7106.517,6.331575
7112.302,6.425453
7118.088,6.535445
7123.873,6.601617
7129.659,6.619356
7135.444,6.597661
7141.229,6.529366
7147.015,6.41631
7152.801,6.236549
7158.586,5.958579
7164.372,5.567667
7170.157,5.291622
7175.942,5.292852
7181.729,5.505624
7187.514,5.736322
7193.299,5.985127
7199.085,6.223647
7204.87,6.472805
7210.655,6.689619
7216.441,6.894252
7222.227,7.101537
7228.012,7.318662
7233.798,7.546268
7239.583,7.711133
7245.369,7.8977
7251.154,8.084627
7256.939,8.265052
7262.725,8.452379
7268.511,8.626178
7274.296,8.80724
7280.082,8.985419
7285.867,9.165558
7291.652,9.325214
7297.438,9.496031
7303.224,9.652444
7309.009,9.833584
7314.794,9.987633
7320.58,10.12536
7326.365,10.25607
7332.151,10.34072
7337.937,10.42501
7343.722,10.50624
7349.508,10.56464
7355.293,10.65576
7361.079,10.73139
7366.864,10.82097
7372.649,10.90663
7378.435,10.98765
7384.221,11.07564
7390.006,11.12635
7395.792,11.16657
7401.577,11.21341
7407.362,11.25588
7413.148,11.27668
7418.934,11.31338
7424.719,11.32631
7430.504,11.34906
7436.29,11.36301
7442.075,11.37622
7447.861,11.39353
7453.646,11.4024
7459.432,11.42231
7465.218,11.42932
7471.003,11.43215
7476.788,11.43885
7482.574,11.4409
7488.359,11.43628
7494.145,11.43865
7499.931,11.43578
7505.716,11.43499
7511.501,11.42769
7517.287,11.42688
7523.072,11.42328
7528.858,11.41395
7534.644,11.4104
7540.429,11.39911
7546.214,11.38107
7552.0,11.37064
7557.785,11.36113
7563.571,11.35464
7569.356,11.33412
7575.142,11.32219
7580.927,11.31774
7586.713,11.28967
7592.498,11.28076
7598.284,11.25737
7604.069,11.24181
7609.854,11.22274
7615.641,11.20291
7621.426,11.17589
7627.211,11.15329
7632.997,11.12271
7638.782,11.08908
7644.568,11.07051
7650.354,11.04871
7656.139,11.02451
7661.924,11.00364
7667.71,10.98024
7673.495,10.95601
7679.281,10.94322
7685.066,10.92365
7690.852,10.90849
7696.637,10.89663
7702.423,10.87721
7708.208,10.86001
7713.994,10.84077
7719.779,10.82293
7725.564,10.8162
7731.35,10.77846
7737.136,10.76991
7742.921,10.75747
7748.707,10.73471
7754.492,10.71488
7760.277,10.69042
7766.063,10.67087
7771.849,10.64674
7777.634,10.63072
7783.42,10.61754
7789.205,10.5995
7794.991,10.593
7800.776,10.56551
7806.562,10.53947
7812.347,10.51942
7818.133,10.50259
7823.918,10.48026
7829.704,10.44567
7835.489,10.42143
7841.274,10.40115
7847.06,10.36559
7852.846,10.33149
7858.631,10.29485
7864.417,10.25924
7870.202,10.2239
7875.987,10.18012
7881.773,10.14486
7887.559,10.10714
7893.344,10.05919
7899.13,10.00775
7904.915,9.964906
7910.7,9.916224
7916.486,9.862422
7922.271,9.813634
7928.057,9.759867
7933.843,9.701219
7939.628,9.636847
7945.414,9.577723
7951.199,9.512861
7956.984,9.443732
7962.77,9.373201
7968.556,9.312257
7974.341,9.231359
7980.126,9.162045
7985.912,9.086694
7991.697,9.000797
7997.483,8.931684
8003.269,8.836943
8009.054,8.763237
8014.839,8.682861
8020.625,8.578652
8026.41,8.489873
8032.196,8.388219
8037.981,8.293825
8043.767,8.194829
8049.553,8.07855
8055.338,7.969468
8061.124,7.86936
8066.909,7.762086
8072.694,7.640358
8078.48,7.530471
8084.266,7.418684
8090.051,7.28466
8095.836,7.178038
8101.622,7.049735
8107.407,6.908055
8113.192,6.782964
8118.979,6.634849
8124.764,6.508891
8130.55,6.355891
8136.335,6.22713
8142.12,6.074073
8147.906,5.936942
8153.691,5.803256
8159.477,5.667347
8165.263,5.518098
8171.048,5.386444
8176.833,5.248866
8182.619,5.133302
8188.404,5.040988
8194.189,4.937898
8199.976,4.872206
8205.761,4.810493
8211.546,4.766726
8217.332,4.733643
8223.117,4.728274
8228.902,4.721042
8234.688,4.731806
8240.474,4.73898
8246.259,4.747619
8252.045,4.776337
8257.83,4.802226
8263.616,4.828383
8269.401,4.872648
8275.187,4.941053
8280.973,4.989334
8286.758,5.069018
8292.543,5.154992
8298.329,5.230552
8304.114,5.315487
8309.899,5.411
8315.686,5.499382
8321.471,5.575199
8327.256,5.670121
8333.042,5.766336
8338.827,5.857256
8344.612,5.958005
8350.398,6.067966
8356.184,6.173596
8361.969,6.269098
8367.755,6.382018
8373.54,6.482903
8379.325,6.572939
8385.111,6.66874
8390.896,6.742055
8396.683,6.805829
8402.468,6.83829
8408.253,6.865312
8414.039,6.88965
8419.824,6.901344
8425.609,6.941336
8431.396,7.017048
8437.181,7.113577
8442.966,7.256174
8448.752,7.383042
8454.537,7.515181
8460.322,7.634773
8466.108,7.739817
8471.894,7.838902
8477.679,7.963921
8483.465,8.072287
8489.25,8.179577
8495.035,8.278234
8500.821,8.352625
8506.606,8.415423
8512.392,8.453606
8518.178,8.513555
8523.963,8.575459
8529.748,8.602288
8535.534,8.626702
8541.319,8.597982
8547.105,8.53674
8552.891,8.453792
8558.676,8.341971
8564.462,8.302929
8570.247,8.383463
8576.032,8.504457
8581.818,8.659099
8587.604,8.832691
8593.389,9.029932
8599.175,9.192722
8604.96,9.384899
8610.745,9.575139
8616.531,9.737881
8622.316,9.906688
8628.102,10.06789
8633.888,10.20667
8639.673,10.31536
8645.458,10.42769
8651.244,10.52825
8657.029,10.62266
8662.814,10.70698
8668.601,10.7679
8674.386,10.84392
8680.172,10.91193
8685.957,10.98575
8691.742,11.06369
8697.528,11.16348
8703.313,11.24109
8709.099,11.34325
8714.885,11.4543
8720.67,11.53675
8726.455,11.63107
8732.241,11.74251
8738.026,11.82369
8743.812,11.90929
8749.598,11.97986
8755.383,12.06999
8761.168,12.13488
8766.954,12.18518
8772.739,12.25839
8778.524,12.3221
8784.311,12.34428
8790.096,12.41654
8795.881,12.44481
8801.667,12.47381
8807.452,12.51601
8813.237,12.54841
8819.023,12.56518
8824.809,12.58201
8830.595,12.60962
8836.38,12.61897
8842.165,12.63269
8847.951,12.6475
8853.736,12.6529
8859.521,12.66942
8865.308,12.69342
8871.093,12.68804
8876.878,12.70118
8882.664,12.69746
8888.449,12.69926
8894.234,12.69949
8900.021,12.72449
8905.806,12.71188
8911.591,12.70591
8917.377,12.71117
8923.162,12.6987
8928.947,12.69888
8934.733,12.6763
8940.519,12.68353
8946.304,12.69512
8952.09,12.69614
8957.875,12.68952
8963.661,12.68637
8969.446,12.69713
8975.231,12.69434
8981.018,12.70651
8986.803,12.7081
8992.588,12.69945
8998.374,12.70196
9004.159,12.71066
9009.944,12.73171
9015.73,12.7257
9021.516,12.73784
9027.301,12.7423
9033.087,12.75669
9038.872,12.75358
9044.657,12.74471
9050.443,12.75875
9056.229,12.75877
9062.014,12.77837
9067.8,12.77401
9073.585,12.7868
9079.37,12.77621
9085.156,12.79373
9090.941,12.79419
9096.727,12.78119
9102.513,12.8051
9108.298,12.78151
9114.084,12.77444
9119.869,12.77611
9125.654,12.77576
9131.44,12.77528
9137.226,12.77026
9143.011,12.76153
9148.797,12.77168
9154.582,12.76711
9160.367,12.7639
9166.153,12.74725
9171.938,12.73231
9177.724,12.74631
9183.51,12.71966
9189.295,12.70209
9195.08,12.70101
9200.866,12.69107
9206.651,12.68965
9212.437,12.69817
9218.223,12.66298
9224.008,12.65875
9229.793,12.66132
9235.579,12.65727
9241.364,12.65787
9247.15,12.6508
9252.936,12.63339
9258.721,12.62805
9264.507,12.62009
9270.292,12.63788
9276.077,12.61329
9281.863,12.59945
9287.648,12.58296
9293.434,12.60955
9299.22,12.58879
9305.005,12.59022
9310.79,12.59477
9316.576,12.58014
9322.361,12.5998
9328.146,12.58877
9333.933,12.57478
9339.718,12.60045
9345.503,12.574
9351.289,12.58754
9357.074,12.54081
9362.859,12.54347
9368.646,12.54307
9374.431,12.51497
9380.217,12.50859
9386.002,12.49942
9391.787,12.49824
9397.573,12.45834
9403.358,12.44871
9409.144,12.43311
9414.93,12.43804
9420.715,12.41749
9426.5,12.38197
9432.286,12.3653
9438.071,12.37231
9443.856,12.34362
9449.643,12.32586
9455.428,12.29072
9461.213,12.27624
9466.999,12.25581
9472.784,12.25662
9478.569,12.25623
9484.355,12.23665
9490.141,12.2142
9495.926,12.19758
9501.712,12.20644
9507.497,12.20086
9513.282,12.15924
9519.068,12.1583
9524.854,12.15286
9530.64,12.13788
9536.425,12.11561
9542.21,12.10632
9547.996,12.09551
9553.781,12.08824
9559.566,12.06471
9565.353,12.03981
9571.138,12.03686
9576.923,12.02121
9582.709,12.01026
9588.494,12.00668
9594.279,11.99789
9600.065,12.00744
9605.851,11.99914
9611.636,12.02328
9617.422,12.05867
9623.207,12.04793
9628.992,12.07373
9634.778,12.09176
9640.563,12.11697
9646.349,12.17845
9652.135,12.17372
9657.92,12.20134
9663.706,12.22774
9669.491,12.25272
9675.276,12.27776
9681.063,12.30283
9686.848,12.33509
9692.633,12.35885
9698.419,12.37548
9704.204,12.38443
9709.989,12.42511
9715.775,12.48242
9721.561,12.46761
9727.346,12.48975
9733.132,12.55067
9738.917,12.56066
9744.702,12.60166
9750.488,12.6306
9756.273,12.64899
9762.059,12.64645
9767.845,12.62607
9773.63,12.62882
9779.415,12.66841
9785.201,12.66175
9790.986,12.68566
9796.771,12.69816
9802.558,12.67349
9808.343,12.6736
9814.129,12.67816
9819.914,12.69142
9825.699,12.67685
9831.485,12.70496
9837.271,12.74987
9843.056,12.72373
9848.842,12.76422
9854.627,12.80722
9860.412,12.8356
9866.198,12.8751
9871.983,12.88647
9877.769,12.93225
9883.555,12.95327
9889.34,12.99228
9895.125,13.01623
9900.911,13.00449
9906.696,13.06155
9912.481,13.06034
9918.268,13.09493
9924.053,13.10665
9929.838,13.11642
9935.624,13.16429
9941.409,13.21277
9947.195,13.22016
9952.98,13.21571
9958.766,13.2692
9964.552,13.26541
9970.337,13.30815
9976.122,13.28469
9981.908,13.29164
9987.693,13.33516
9993.479,13.36307
9999.265,13.33638
10005.05,13.33488
10010.83,13.37389
10016.62,13.38215
10022.41,13.38058
10028.19,13.3907
10033.98,13.42488
10039.76,13.43833
10045.55,13.4564
10051.33,13.48648
10057.12,13.484
10062.9,13.48949
10068.69,13.48461
10074.48,13.52185
10080.26,13.52549
10086.05,13.57654
10091.83,13.53933
10097.62,13.537
10103.4,13.55824
10109.19,13.54546
10114.97,13.55007
10120.76,13.56578
10126.54,13.56502
10132.33,13.60082
10138.12,13.58512
10143.9,13.59056
10149.69,13.57685
10155.47,13.58437
10161.26,13.60279
10167.04,13.56327
10172.83,13.60243
10178.61,13.55601
10184.4,13.61787
10190.19,13.60777
10195.97,13.59114
10201.76,13.57814
10207.54,13.58767
10213.33,13.60811
10219.11,13.60058
10224.9,13.6172
10230.68,13.60842
10236.47,13.61117
10242.25,13.56276
10248.04,13.58333
10253.83,13.59512
10259.61,13.59209
10265.4,13.58307
10271.18,13.58762
10276.97,13.59518
10282.75,13.56732
10288.54,13.59664
10294.32,13.57928
10300.11,13.61344
10305.9,13.59034
10311.68,13.56807
10317.47,13.55637
10323.25,13.58469
10329.04,13.5613
10334.82,13.56912
10340.61,13.5439
10346.39,13.55872
10352.18,13.5428
10357.96,13.57604
10363.75,13.53485
10369.54,13.50822
10375.32,13.5254
10381.11,13.52667
10386.89,13.51749
10392.68,13.49715
10398.46,13.47778
10404.25,13.52168
10410.03,13.45361
10415.82,13.45189
10421.61,13.49094
10427.39,13.45938
10433.18,13.40743
10438.96,13.42655
10444.75,13.45174
10450.53,13.38692
10456.32,13.42485
10462.1,13.38309
10467.89,13.35038
10473.67,13.38054
10479.46,13.35682
10485.25,13.32974
10491.03,13.30424
10496.82,13.24414
10502.6,13.26103
10508.39,13.23572
10514.17,13.20864
10519.96,13.19345
10525.74,13.11948
10531.53,13.09372
10537.32,13.07219
10543.1,13.0662
10548.89,12.99601
10554.67,12.98842
10560.46,12.86414
10566.24,12.86047
10572.03,12.81869
10577.81,12.67984
10583.6,12.69167
10589.38,12.5894
10595.17,12.58966
10600.96,12.44513
10606.74,12.39707
10612.53,12.30529
10618.31,12.25848
10624.1,12.15527
10629.88,12.0875
10635.67,11.95221
10641.45,11.90881
10647.24,11.77521
10653.03,11.66252
10658.81,11.63199
10664.6,11.53104
10670.38,11.4359
10676.17,11.32066
10681.95,11.30713
10687.74,11.17203
10693.52,11.19724
10699.31,11.12171
10705.09,11.1215
10710.88,11.05978
10716.67,11.04225
10722.45,11.02663
10728.24,10.99979
10734.02,11.02707
10739.81,11.04956
10745.59,11.02644
10751.38,11.11286
10757.16,11.1458
10762.95,11.1623
10768.74,11.2122
10774.52,11.24995
10780.31,11.25737
10786.09,11.3925
10791.88,11.37211
10797.66,11.44147
10803.45,11.50775
10809.23,11.61288
10815.02,11.66541
10820.8,11.72235
10826.59,11.71929
10832.38,11.86428
10838.16,11.97537
10843.95,11.99956
10849.73,12.0379
10855.52,12.07802
10861.3,12.16789
10867.09,12.29983
10872.87,12.32938
10878.66,12.38666
10884.45,12.4496
10890.23,12.45732
10896.02,12.52176
10901.8,12.62438
10907.59,12.63545
10913.37,12.73367
10919.16,12.74195
10924.94,12.80713
10930.73,12.78103
10936.51,12.91186
10942.3,12.89308
10948.09,12.93216
10953.87,13.06952
10959.66,13.06581
10965.44,13.12475
10971.23,13.20935
10977.01,13.17906
10982.8,13.27676
10988.58,13.23665
10994.37,13.31182
11000.16,13.3168
11005.94,13.38514
11011.73,13.46296
11017.51,13.47637
11023.3,13.46524
11029.08,13.54794
11034.87,13.47268
11040.65,13.57507
11046.44,13.58406
11052.22,13.56337
11058.01,13.64188
11063.79,13.6933
11069.58,13.69291
11075.37,13.66974
11081.15,13.66683
11086.94,13.6751
11092.72,13.67243
11098.51,13.74928
11104.29,13.74439
11110.08,13.68198
11115.87,13.70149
11121.65,13.72591
11127.44,13.7824
11133.22,13.66383
11139.01,13.73256
11144.79,13.8301
11150.58,13.84914
11156.36,13.80631
11162.15,13.92026
11167.93,13.78876
11173.72,13.85809
11179.5,13.93391
11185.29,13.87499
11191.08,13.88827
11196.86,14.02778
11202.65,13.92014
11208.43,14.06221
11214.22,14.03838
11220.0,14.09055
11225.79,14.05494
11231.58,14.11433
11237.36,14.10417
11243.15,14.04667
11248.93,14.188
11254.72,14.21704
11260.5,14.19968
11266.29,14.1785
11272.07,14.19831
11277.86,14.20889
11283.64,14.23774
11289.43,14.23522
11295.21,14.22871
11301.0,14.26504
11306.79,14.29186
11312.57,14.34944
11318.36,14.2513
11324.14,14.32308
11329.93,14.31858
11335.71,14.39277
11341.5,14.34909
11347.28,14.40381
11353.07,14.42124
11358.86,14.35851
11364.64,14.30955
11370.43,14.36495
11376.21,14.40233
11382.0,14.42174
11387.78,14.43063
11393.57,14.41241
11399.35,14.48681
11405.14,14.42954
11410.92,14.44573
11416.71,14.50052
11422.5,14.46181
11428.28,14.52783
11434.07,14.475
11439.85,14.51669
11445.64,14.40042
11451.42,14.57432
11457.21,14.50841
11462.99,14.57784
11468.78,14.53241
11474.57,14.47629
11480.35,14.71342
11486.14,14.49304
11491.92,14.62354
11497.71,14.55527
11503.49,14.6015
11509.28,14.58602
11515.06,14.57491
11520.85,14.64951
11526.63,14.6873
11532.42,14.60216
11538.21,14.57555
11543.99,14.52848
11549.78,14.73979
11555.56,14.61499
11561.35,14.69041
11567.13,14.60294
11572.92,14.58204
11578.7,14.68871
11584.49,14.69895
11590.28,14.67863
11596.06,14.75835
11601.85,14.65985
11607.63,14.57612
11613.42,14.69189
11619.2,14.6954
11624.99,14.78199
11630.77,14.66521
11636.56,14.73405
11642.34,14.76833
11648.13,14.71136
11653.92,14.65771
11659.7,14.83202
11665.49,14.68528
11671.27,14.80239
11677.06,14.76441
11682.84,14.69018
11688.63,14.79373
11694.41,14.80749
11700.2,14.61809
11705.99,14.77289
11711.77,14.75129
11717.56,14.73795
11723.34,14.74962
11729.13,14.67905
11734.91,14.73835
11740.7,14.78436
11746.48,14.826
11752.27,14.78071
11758.05,14.79249
11763.84,14.77852
11769.63,14.77668
11775.41,14.76584
11781.2,14.6848
11786.98,14.72781
11792.77,14.70308
11798.55,14.7805
11804.34,14.6461
11810.12,14.77976
11815.91,14.80932
11821.7,14.74356
11827.48,14.67286
11833.27,14.70831
11839.05,14.57592
11844.84,14.73613
11850.62,14.60173
11856.41,14.59406
11862.19,14.69187
11867.98,14.74608
11873.76,14.68074
11879.55,14.65701
11885.34,14.54185
11891.12,14.76562
11896.91,14.63273
11902.69,14.57238
11908.48,14.77222
11914.26,14.49281
11920.05,14.76288
11925.83,14.7844
11931.62,14.73025
11937.41,14.71578
11943.19,14.61999
11948.98,14.70063
11954.76,14.77967
11960.55,14.71283
11966.33,14.66822
11972.12,14.47758
11977.9,14.6233
11983.69,14.58997
11989.47,14.76893
11995.26,14.60529
11999.12,14.68164