File: Data/NIR/S0081LDPE_6.csv
Wavenumber,Intensity
3999.706,2.793289
4005.491,2.793406
4011.277,2.800537
4017.062,2.800935
4022.848,2.800406
4028.633,2.805306
4034.419,2.809294
4040.204,2.809666
4045.99,2.816794
4051.775,2.817105
4057.561,2.820451
4063.346,2.823765
4069.132,2.825257
4074.917,2.829568
4080.703,2.828142
4086.488,2.826966
4092.274,2.831515
4098.059,2.82795
4103.845,2.834244
4109.63,2.83299
4115.416,2.836184
4121.201,2.835883
4126.987,2.839122
4132.772,2.838917
4138.558,2.837376
4144.343,2.843201
4150.129,2.845203
4155.914,2.845619
4161.7,2.84585
4167.485,2.852614
4173.271,2.860222
4179.056,2.863216
4184.842,2.864331
4190.627,2.869367
4196.413,2.880756
4202.198,2.885643
4207.983,2.891954
4213.769,2.89829
4219.555,2.908417
4225.34,2.91133
4231.125,2.917168
4236.911,2.921314
4242.697,2.920589
4248.482,2.919981
4254.268,2.921075
4260.053,2.931075
4265.838,2.933966
4271.624,2.941282
4277.41,2.945526
4283.195,2.950071
4288.98,2.950236
4294.766,2.952774
4300.552,2.955433
4306.337,2.952194
4312.123,2.950729
4317.908,2.941387
4323.693,2.934378
4329.479,2.942698
4335.265,2.943826
4341.05,2.953631
4346.835,2.951866
4352.621,2.963112
4358.407,2.964095
4364.192,2.963693
4369.978,2.969191
4375.763,2.97302
4381.548,2.97569
4387.334,2.974091
4393.12,2.982487
4398.905,2.985031
4404.69,2.994402
4410.476,3.012146
4416.262,3.025323
4422.047,3.044322
4427.833,3.065057
4433.618,3.079963
4439.403,3.110125
4445.189,3.136218
4450.975,3.165733
4456.76,3.197567
4462.545,3.229382
4468.331,3.263085
4474.116,3.293912
4479.902,3.327637
4485.688,3.363288
4491.473,3.398654
4497.258,3.432516
4503.044,3.470319
4508.83,3.510715
4514.615,3.552815
4520.4,3.595711
4526.186,3.633645
4531.971,3.677469
4537.757,3.725664
4543.542,3.768911
4549.328,3.818948
4555.113,3.868351
4560.899,3.919374
4566.685,3.968683
4572.47,4.011295
4578.255,4.04555
4584.041,4.075968
4589.826,4.105559
4595.612,4.129365
4601.397,4.151258
4607.183,4.170892
4612.968,4.194821
4618.754,4.208591
4624.539,4.231898
4630.325,4.254985
4636.11,4.263443
4641.896,4.275779
4647.681,4.275394
4653.467,4.263391
4659.252,4.230864
4665.038,4.195988
4670.823,4.212437
4676.609,4.263237
4682.394,4.311988
4688.18,4.340506
4693.965,4.346943
4699.751,4.354755
4705.536,4.353696
4711.322,4.343914
4717.107,4.329652
4722.893,4.307902
4728.678,4.285193
4734.464,4.271551
4740.249,4.265535
4746.035,4.252441
4751.82,4.236001
4757.605,4.222705
4763.391,4.199232
4769.177,4.168113
4774.962,4.132604
4780.748,4.11553
4786.533,4.10586
4792.319,4.097642
4798.104,4.082904
4803.89,4.062831
4809.675,4.041032
4815.46,4.010038
4821.246,3.980903
4827.032,3.957754
4832.817,3.933623
4838.603,3.904687
4844.388,3.869499
4850.174,3.832292
4855.959,3.798638
4861.745,3.776481
4867.53,3.758354
4873.315,3.758726
4879.101,3.770484
4884.887,3.78051
4890.672,3.788235
4896.458,3.804973
4902.243,3.805817
4908.028,3.820013
4913.814,3.818609
4919.6,3.816546
4925.385,3.813257
4931.17,3.815095
4936.956,3.810055
4942.742,3.806421
4948.527,3.77848
4954.313,3.729039
4960.098,3.668274
4965.883,3.643712
4971.669,3.663672
4977.455,3.683242
4983.24,3.699727
4989.025,3.726963
4994.811,3.757669
5000.597,3.794173
5006.382,3.817348
5012.167,3.828798
5017.953,3.827794
5023.738,3.840566
5029.524,3.860021
5035.31,3.868404
5041.095,3.871999
5046.88,3.873215
5052.666,3.862564
5058.451,3.849246
5064.237,3.843926
5070.022,3.843014
5075.808,3.841552
5081.593,3.839504
5087.379,3.830304
5093.165,3.821418
5098.95,3.820831
5104.735,3.822944
5110.521,3.833934
5116.307,3.845631
5122.092,3.854014
5127.877,3.857522
5133.663,3.864188
5139.448,3.859458
5145.234,3.847503
5151.02,3.838092
5156.805,3.830539
5162.59,3.8231
5168.376,3.827607
5174.161,3.825598
5179.947,3.81866
5185.732,3.817498
5191.518,3.817851
5197.303,3.827483
5203.089,3.826563
5208.874,3.830899
5214.66,3.821439
5220.445,3.824939
5226.231,3.83462
5232.016,3.837485
5237.802,3.842494
5243.587,3.857474
5249.373,3.856093
5255.158,3.866496
5260.944,3.867786
5266.729,3.860366
5272.515,3.853502
5278.3,3.856477
5284.086,3.860168
5289.871,3.864926
5295.657,3.855488
5301.442,3.844197
5307.228,3.835878
5313.013,3.841503
5318.799,3.870719
5324.584,3.892632
5330.37,3.893636
5336.155,3.888737
5341.94,3.862101
5347.726,3.830699
5353.512,3.795859
5359.297,3.760458
5365.083,3.73604
5370.868,3.706806
5376.654,3.694278
5382.439,3.684764
5388.225,3.662472
5394.01,3.641946
5399.796,3.612332
5405.581,3.588424
5411.367,3.563701
5417.152,3.512102
5422.938,3.495313
5428.723,3.487323
5434.509,3.475648
5440.294,3.470842
5446.08,3.463836
5451.865,3.45039
5457.65,3.444183
5463.436,3.435956
5469.222,3.432549
5475.007,3.422703
5480.792,3.400289
5486.578,3.39018
5492.363,3.388278
5498.149,3.384407
5503.935,3.388575
5509.72,3.396321
5515.505,3.40331
5521.291,3.405277
5527.077,3.398854
5532.862,3.398974
5538.647,3.393274
5544.433,3.392826
5550.219,3.392696
5556.004,3.392455
5561.79,3.398324
5567.575,3.41138
5573.36,3.435101
5579.146,3.449867
5584.932,3.468883
5590.717,3.471745
5596.502,3.467522
5602.288,3.450908
5608.073,3.428975
5613.859,3.404168
5619.645,3.387068
5625.43,3.363791
5631.215,3.342056
5637.001,3.325937
5642.786,3.303026
5648.572,3.267058
5654.357,3.22699
5660.143,3.202449
5665.929,3.195139
5671.714,3.210066
5677.5,3.225967
5683.285,3.243942
5689.07,3.264166
5694.856,3.284993
5700.642,3.306938
5706.427,3.341008
5712.212,3.36071
5717.998,3.364175
5723.783,3.336392
5729.569,3.29296
5735.354,3.269529
5741.14,3.252806
5746.925,3.235059
5752.711,3.202698
5758.496,3.186959
5764.282,3.170317
5770.067,3.156205
5775.853,3.155413
5781.638,3.165373
5787.424,3.172124
5793.209,3.172941
5798.995,3.184835
5804.78,3.19405
5810.566,3.205777
5816.352,3.220932
5822.137,3.227498
5827.922,3.248426
5833.708,3.271428
5839.493,3.289096
5845.279,3.32256
5851.064,3.369485
5856.85,3.431919
5862.635,3.527601
5868.421,3.63736
5874.206,3.784747
5879.992,3.950917
5885.777,4.121283
5891.563,4.269366
5897.348,4.376121
5903.134,4.471911
5908.919,4.594699
5914.705,4.770001
5920.49,4.982548
5926.276,5.223567
5932.061,5.456372
5937.847,5.664581
5943.632,5.85803
5949.418,6.018627
5955.203,6.183196
5960.989,6.35789
5966.774,6.542917
5972.56,6.707044
5978.345,6.875388
5984.131,7.020852
5989.916,7.165688
5995.702,7.292038
6001.487,7.419782
6007.272,7.536741
6013.058,7.651943
6018.844,7.763288
6024.629,7.858544
6030.415,7.955749
6036.2,8.0404
6041.985,8.118233
6047.771,8.196208
6053.557,8.258921
6059.342,8.325826
6065.128,8.382289
6070.913,8.437894
6076.698,8.485348
6082.484,8.524602
6088.27,8.566032
6094.055,8.597691
6099.841,8.616865
6105.626,8.642243
6111.412,8.670829
6117.197,8.706824
6122.982,8.754294
6128.768,8.794326
6134.554,8.844233
6140.339,8.89358
6146.125,8.93755
6151.91,8.982063
6157.695,9.028959
6163.481,9.071788
6169.267,9.115632
6175.052,9.16578
6180.837,9.193193
6186.623,9.222082
6192.408,9.258357
6198.194,9.279982
6203.979,9.302733
6209.765,9.327583
6215.551,9.345798
6221.336,9.372674
6227.121,9.389811
6232.907,9.40351
6238.692,9.413816
6244.478,9.426153
6250.264,9.437305
6256.049,9.4396
6261.834,9.451008
6267.62,9.459672
6273.405,9.471375
6279.191,9.478922
6284.977,9.48469
6290.762,9.486972
6296.547,9.490161
6302.333,9.501173
6308.118,9.494226
6313.904,9.504346
6319.689,9.498074
6325.475,9.485636
6331.26,9.475099
6337.046,9.464145
6342.831,9.445292
6348.617,9.426392
6354.402,9.400253
6360.188,9.378992
6365.974,9.336142
6371.759,9.283749
6377.544,9.244952
6383.33,9.231468
6389.115,9.215117
6394.901,9.198843
6400.687,9.175821
6406.472,9.118849
6412.257,9.051165
6418.043,9.002834
6423.828,8.969353
6429.614,8.952256
6435.399,8.917613
6441.185,8.865655
6446.97,8.795838
6452.756,8.703363
6458.541,8.607848
6464.327,8.460597
6470.112,8.234291
6475.897,7.979491
6481.684,7.826805
6487.469,7.833744
6493.254,7.911161
6499.04,7.991473
6504.825,8.068442
6510.61,8.129658
6516.396,8.174034
6522.182,8.217445
6527.967,8.249718
6533.753,8.283253
6539.538,8.298692
6545.324,8.321533
6551.109,8.33752
6556.895,8.355321
6562.68,8.38081
6568.466,8.402293
6574.251,8.428419
6580.037,8.44661
6585.822,8.461295
6591.607,8.472447
6597.393,8.477053
6603.179,8.474026
6608.964,8.470833
6614.75,8.466296
6620.535,8.453259
6626.32,8.44859
6632.106,8.430694
6637.892,8.410985
6643.677,8.39009
6649.463,8.367043
6655.248,8.339203
6661.034,8.311154
6666.819,8.277586
6672.604,8.246139
6678.39,8.209736
6684.176,8.168662
6689.961,8.128127
6695.747,8.088751
6701.532,8.043315
6707.317,7.998405
6713.103,7.938502
6718.889,7.883297
6724.674,7.84021
6730.459,7.790419
6736.245,7.741584
6742.03,7.690217
6747.816,7.65016
6753.602,7.594239
6759.387,7.545073
6765.173,7.493654
6770.958,7.438708
6776.743,7.368308
6782.529,7.289721
6788.314,7.203984
6794.1,7.113577
6799.886,7.016477
6805.671,6.921981
6811.457,6.831315
6817.242,6.752802
6823.027,6.650373
6828.813,6.545268
6834.599,6.469356
6840.384,6.41316
6846.169,6.37271
6851.955,6.326099
6857.74,6.267171
6863.526,6.222637
6869.312,6.169464
6875.097,6.112059
6880.882,6.049448
6886.668,5.989921
6892.453,5.907921
6898.239,5.849299
6904.024,5.792893
6909.81,5.75299
6915.596,5.691332
6921.381,5.630119
6927.166,5.562258
6932.952,5.480278
6938.737,5.384925
6944.523,5.299291
6950.309,5.244514
6956.094,5.226285
6961.879,5.220243
6967.665,5.219145
6973.45,5.215674
6979.236,5.202882
6985.021,5.195543
6990.807,5.171768
6996.592,5.144104
7002.378,5.104069
7008.163,5.062728
7013.949,5.02452
7019.734,4.985783
7025.52,4.97784
7031.305,4.979917
7037.091,4.987486
7042.876,4.973181
7048.662,4.92026
7054.447,4.833409
7060.232,4.73715
7066.019,4.731835
7071.804,4.834583
7077.589,4.971963
7083.375,5.086614
7089.16,5.166894
7094.946,5.231611
7100.731,5.309922
7106.517,5.404016
7112.302,5.500288
7118.088,5.60117
7123.873,5.664605
7129.659,5.692942
7135.444,5.675368
7141.229,5.594536
7147.015,5.493074
7152.801,5.314002
7158.586,5.048956
7164.372,4.684274
7170.157,4.429358
7175.942,4.443221
7181.729,4.624394
7187.514,4.845368
7193.299,5.077801
7199.085,5.30244
7204.87,5.549006
7210.655,5.752292
7216.441,5.946863
7222.227,6.150175
7228.012,6.375183
7233.798,6.578641
7239.583,6.762583
7245.369,6.941343
7251.154,7.12465
7256.939,7.304714
7262.725,7.487816
7268.511,7.664441
7274.296,7.847181
7280.082,8.015995
7285.867,8.193001
7291.652,8.36466
7297.438,8.528468
7303.224,8.68462
7309.009,8.861471
7314.794,9.015597
7320.58,9.151628
7326.365,9.287761
7332.151,9.363298
7337.937,9.458925
7343.722,9.522192
7349.508,9.58435
7355.293,9.675495
7361.079,9.760122
7366.864,9.848293
7372.649,9.925656
7378.435,10.01464
7384.221,10.08065
7390.006,10.14683
7395.792,10.20403
7401.577,10.23289
7407.362,10.26842
7413.148,10.298
7418.934,10.32361
7424.719,10.33755
7430.504,10.36038
7436.29,10.37638
7442.075,10.38583
7447.861,10.39929
7453.646,10.42452
7459.432,10.42117
7465.218,10.43326
7471.003,10.44384
7476.788,10.44624
7482.574,10.44782
7488.359,10.45147
7494.145,10.44641
7499.931,10.44791
7505.716,10.44089
7511.501,10.43958
7517.287,10.43003
7523.072,10.42601
7528.858,10.42293
7534.644,10.41027
7540.429,10.39499
7546.214,10.39231
7552.0,10.37903
7557.785,10.36535
7563.571,10.35396
7569.356,10.33634
7575.142,10.32496
7580.927,10.30337
7586.713,10.29962
7592.498,10.28323
7598.284,10.27126
7604.069,10.23846
7609.854,10.22338
7615.641,10.20041
7621.426,10.17458
7627.211,10.15404
7632.997,10.12082
7638.782,10.09331
7644.568,10.06281
7650.354,10.04291
7656.139,10.01419
7661.924,10.00278
7667.71,9.977418
7673.495,9.955136
7679.281,9.932128
7685.066,9.916622
7690.852,9.897346
7696.637,9.876174
7702.423,9.875847
7708.208,9.854451
7713.994,9.838534
7719.779,9.811553
7725.564,9.795465
7731.35,9.778739
7737.136,9.769369
7742.921,9.748033
7748.707,9.725346
7754.492,9.702241
7760.277,9.676798
7766.063,9.660143
7771.849,9.628625
7777.634,9.607942
7783.42,9.593114
7789.205,9.579115
7794.991,9.578538
7800.776,9.559939
7806.562,9.522545
7812.347,9.503185
7818.133,9.482954
7823.918,9.460321
7829.704,9.438691
7835.489,9.409324
7841.274,9.379865
7847.06,9.34382
7852.846,9.318073
7858.631,9.28926
7864.417,9.244539
7870.202,9.205616
7875.987,9.1719
7881.773,9.126239
7887.559,9.091946
7893.344,9.031691
7899.13,8.982733
7904.915,8.948582
7910.7,8.902298
7916.486,8.850083
7922.271,8.796466
7928.057,8.742293
7933.843,8.677069
7939.628,8.617138
7945.414,8.565989
7951.199,8.508718
7956.984,8.432467
7962.77,8.366612
7968.556,8.286896
7974.341,8.219049
7980.126,8.147386
7985.912,8.072145
7991.697,7.999905
7997.483,7.913248
8003.269,7.825219
8009.054,7.750855
8014.839,7.669833
8020.625,7.574426
8026.41,7.476259
8032.196,7.386024
8037.981,7.273118
8043.767,7.18798
8049.553,7.086669
8055.338,6.974981
8061.124,6.860097
8066.909,6.765155
8072.694,6.648024
8078.48,6.539199
8084.266,6.429368
8090.051,6.309879
8095.836,6.186505
8101.622,6.061632
8107.407,5.93871
8113.192,5.807452
8118.979,5.672494
8124.764,5.550544
8130.55,5.401531
8136.335,5.259675
8142.12,5.146216
8147.906,5.0097
8153.691,4.891532
8159.477,4.752095
8165.263,4.625013
8171.048,4.501905
8176.833,4.393541
8182.619,4.292166
8188.404,4.201285
8194.189,4.117229
8199.976,4.065416
8205.761,4.012836
8211.546,3.988732
8217.332,3.963463
8223.117,3.958525
8228.902,3.954638
8234.688,3.953377
8240.474,3.965989
8246.259,3.969587
8252.045,4.001376
8257.83,4.001099
8263.616,4.036435
8269.401,4.071616
8275.187,4.128034
8280.973,4.176209
8286.758,4.229953
8292.543,4.309767
8298.329,4.383861
8304.114,4.446556
8309.899,4.523411
8315.686,4.604095
8321.471,4.680721
8327.256,4.754675
8333.042,4.835412
8338.827,4.910399
8344.612,5.013649
8350.398,5.124037
8356.184,5.219262
8361.969,5.321981
8367.755,5.418794
8373.54,5.518332
8379.325,5.60358
8385.111,5.686347
8390.896,5.76087
8396.683,5.81254
8402.468,5.849469
8408.253,5.881903
8414.039,5.899471
8419.824,5.904622
8425.609,5.947757
8431.396,6.003747
8437.181,6.115062
8442.966,6.236945
8448.752,6.357331
8454.537,6.493167
8460.322,6.633116
8466.108,6.710295
8471.894,6.833724
8477.679,6.930684
8483.465,7.035543
8489.25,7.146647
8495.035,7.244121
8500.821,7.309419
8506.606,7.372129
8512.392,7.417152
8518.178,7.464518
8523.963,7.513133
8529.748,7.568495
8535.534,7.584605
8541.319,7.563977
8547.105,7.519939
8552.891,7.404159
8558.676,7.322902
8564.462,7.265523
8570.247,7.346776
8576.032,7.468268
8581.818,7.614497
8587.604,7.77753
8593.389,7.943421
8599.175,8.149243
8604.96,8.324144
8610.745,8.50193
8616.531,8.656829
8622.316,8.839527
8628.102,8.992374
8633.888,9.107274
8639.673,9.235486
8645.458,9.349869
8651.244,9.426221
8657.029,9.526195
8662.814,9.613693
8668.601,9.68751
8674.386,9.751141
8680.172,9.80827
8685.957,9.89188
8691.742,9.967961
8697.528,10.0584
8703.313,10.14542
8709.099,10.24234
8714.885,10.32718
8720.67,10.43207
8726.455,10.52443
8732.241,10.613
8738.026,10.70357
8743.812,10.78823
8749.598,10.86459
8755.383,10.95207
8761.168,11.02993
8766.954,11.08062
8772.739,11.13951
8778.524,11.18862
8784.311,11.23932
8790.096,11.27421
8795.881,11.30949
8801.667,11.35591
8807.452,11.38145
8813.237,11.41185
8819.023,11.42073
8824.809,11.45376
8830.595,11.48128
8836.38,11.49084
8842.165,11.52763
8847.951,11.50982
8853.736,11.52325
8859.521,11.52431
8865.308,11.55105
8871.093,11.56923
8876.878,11.56344
8882.664,11.57844
8888.449,11.56344
8894.234,11.56563
8900.021,11.5667
8905.806,11.56902
8911.591,11.55765
8917.377,11.54895
8923.162,11.56932
8928.947,11.55217
8934.733,11.54984
8940.519,11.54803
8946.304,11.54373
8952.09,11.52692
8957.875,11.54315
8963.661,11.5482
8969.446,11.54374
8975.231,11.55061
8981.018,11.54944
8986.803,11.55476
8992.588,11.56542
8998.374,11.5834
9004.159,11.5883
9009.944,11.57048
9015.73,11.58421
9021.516,11.58144
9027.301,11.60242
9033.087,11.5992
9038.872,11.6067
9044.657,11.609
9050.443,11.60286
9056.229,11.60857
9062.014,11.60871
9067.8,11.6387
9073.585,11.62023
9079.37,11.6199
9085.156,11.62265
9090.941,11.62214
9096.727,11.6334
9102.513,11.61936
9108.298,11.64245
9114.084,11.62862
9119.869,11.6198
9125.654,11.61809
9131.44,11.61939
9137.226,11.61094
9143.011,11.60576
9148.797,11.58162
9154.582,11.58623
9160.367,11.5872
9166.153,11.56816
9171.938,11.58307
9177.724,11.58244
9183.51,11.56989
9189.295,11.55451
9195.08,11.53636
9200.866,11.52536
9206.651,11.50178
9212.437,11.51002
9218.223,11.50375
9224.008,11.49758
9229.793,11.49128
9235.579,11.4848
9241.364,11.49275
9247.15,11.4692
9252.936,11.46557
9258.721,11.4665
9264.507,11.43097
9270.292,11.45178
9276.077,11.44178
9281.863,11.41885
9287.648,11.39902
9293.434,11.41371
9299.22,11.41107
9305.005,11.41292
9310.79,11.4151
9316.576,11.42633
9322.361,11.4153
9328.146,11.40771
9333.933,11.42082
9339.718,11.39303
9345.503,11.38934
9351.289,11.39786
9357.074,11.37212
9362.859,11.35634
9368.646,11.36005
9374.431,11.33949
9380.217,11.33352
9386.002,11.30601
9391.787,11.28606
9397.573,11.27528
9403.358,11.27182
9409.144,11.24969
9414.93,11.24403
9420.715,11.20708
9426.5,11.20118
9432.286,11.16685
9438.071,11.16648
9443.856,11.17392
9449.643,11.14021
9455.428,11.11787
9461.213,11.08249
9466.999,11.06929
9472.784,11.04994
9478.569,11.05295
9484.355,11.02592
9490.141,11.01773
9495.926,11.01793
9501.712,10.99412
9507.497,10.99304
9513.282,10.98288
9519.068,10.96017
9524.854,10.94436
9530.64,10.93366
9536.425,10.94415
9542.21,10.89673
9547.996,10.87981
9553.781,10.86485
9559.566,10.87501
9565.353,10.85019
9571.138,10.8332
9576.923,10.81994
9582.709,10.80136
9588.494,10.80081
9594.279,10.78984
9600.065,10.79374
9605.851,10.8096
9611.636,10.81369
9617.422,10.82537
9623.207,10.87347
9628.992,10.89192
9634.778,10.89978
9640.563,10.92739
9646.349,10.92315
9652.135,10.96852
9657.92,11.01869
9663.706,11.01829
9669.491,11.04965
9675.276,11.06309
9681.063,11.0914
9686.848,11.09424
9692.633,11.11975
9698.419,11.1698
9704.204,11.18065
9709.989,11.21865
9715.775,11.24432
9721.561,11.26851
9727.346,11.29264
9733.132,11.33256
9738.917,11.33013
9744.702,11.37026
9750.488,11.38523
9756.273,11.40527
9762.059,11.40521
9767.845,11.43533
9773.63,11.42761
9779.415,11.44911
9785.201,11.44697
9790.986,11.44598
9796.771,11.42579
9802.558,11.43042
9808.343,11.44175
9814.129,11.45386
9819.914,11.44345
9825.699,11.47973
9831.485,11.44973
9837.271,11.47879
9843.056,11.50496
9848.842,11.55518
9854.627,11.56305
9860.412,11.61318
9866.198,11.59749
9871.983,11.66108
9877.769,11.6636
9883.555,11.68919
9889.34,11.7337
9895.125,11.74551
9900.911,11.78775
9906.696,11.81344
9912.481,11.818
9918.268,11.84561
9924.053,11.87101
9929.838,11.86823
9935.624,11.92022
9941.409,11.95035
9947.195,11.94987
9952.98,11.98512
9958.766,11.99794
9964.552,12.017
9970.337,12.03048
9976.122,12.02242
9981.908,12.04759
9987.693,12.08288
9993.479,12.068
9999.265,12.05662
10005.05,12.09518
10010.83,12.1218
10016.62,12.10194
10022.41,12.12179
10028.19,12.14489
10033.98,12.16087
10039.76,12.18535
10045.55,12.18024
10051.33,12.22751
10057.12,12.24085
10062.9,12.23676
10068.69,12.25506
10074.48,12.22173
10080.26,12.26671
10086.05,12.2677
10091.83,12.24863
10097.62,12.26564
10103.4,12.279
10109.19,12.24989
10114.97,12.28305
10120.76,12.27961
10126.54,12.28562
10132.33,12.30448
10138.12,12.28818
10143.9,12.3362
10149.69,12.2991
10155.47,12.31244
10161.26,12.30605
10167.04,12.31189
10172.83,12.31803
10178.61,12.3446
10184.4,12.31602
10190.19,12.30772
10195.97,12.34743
10201.76,12.30804
10207.54,12.3417
10213.33,12.3504
10219.11,12.33806
10224.9,12.34687
10230.68,12.34376
10236.47,12.32282
10242.25,12.31139
10248.04,12.34267
10253.83,12.32558
10259.61,12.34923
10265.4,12.3027
10271.18,12.31483
10276.97,12.29024
10282.75,12.28968
10288.54,12.29774
10294.32,12.29466
10300.11,12.29134
10305.9,12.28887
10311.68,12.2904
10317.47,12.27363
10323.25,12.30106
10329.04,12.26996
10334.82,12.2599
10340.61,12.27199
10346.39,12.25467
10352.18,12.23006
10357.96,12.24419
10363.75,12.27345
10369.54,12.22117
10375.32,12.22631
10381.11,12.22719
10386.89,12.22643
10392.68,12.24748
10398.46,12.20907
10404.25,12.2167
10410.03,12.18573
10415.82,12.21614
10421.61,12.19294
10427.39,12.13205
10433.18,12.11341
10438.96,12.13002
10444.75,12.10822
10450.53,12.1036
10456.32,12.12611
10462.1,12.07301
10467.89,12.07814
10473.67,12.06001
10479.46,12.05516
10485.25,12.01885
10491.03,12.01001
10496.82,11.94137
10502.6,11.92958
10508.39,11.8947
10514.17,11.88442
10519.96,11.87232
10525.74,11.8437
10531.53,11.74441
10537.32,11.73899
10543.1,11.76845
10548.89,11.67202
10554.67,11.63187
10560.46,11.6137
10566.24,11.51096
10572.03,11.47511
10577.81,11.4343
10583.6,11.36116
10589.38,11.28299
10595.17,11.28342
10600.96,11.15249
10606.74,11.10892
10612.53,11.05833
10618.31,10.94106
10624.1,10.90714
10629.88,10.75339
10635.67,10.7188
10641.45,10.60869
10647.24,10.54973
10653.03,10.3939
10658.81,10.33734
10664.6,10.23
10670.38,10.15661
10676.17,10.07567
10681.95,9.994951
10687.74,9.910433
10693.52,9.937392
10699.31,9.85758
10705.09,9.791804
10710.88,9.737815
10716.67,9.810089
10722.45,9.797946
10728.24,9.731633
10734.02,9.776359
10739.81,9.784201
10745.59,9.83049
10751.38,9.844578
10757.16,9.840625
10762.95,9.876955
10768.74,9.911444
10774.52,9.966976
10780.31,9.998286
10786.09,10.08553
10791.88,10.15336
10797.66,10.20991
10803.45,10.28475
10809.23,10.27668
10815.02,10.37093
10820.8,10.3937
10826.59,10.42741
10832.38,10.59263
10838.16,10.63836
10843.95,10.73712
10849.73,10.77377
10855.52,10.78959
10861.3,10.85461
10867.09,10.90712
10872.87,11.00724
10878.66,11.02039
10884.45,11.02466
10890.23,11.10662
10896.02,11.21488
10901.8,11.21856
10907.59,11.31429
10913.37,11.36818
10919.16,11.46466
10924.94,11.44891
10930.73,11.52711
10936.51,11.58331
10942.3,11.63612
10948.09,11.6584
10953.87,11.72724
10959.66,11.76985
10965.44,11.77999
10971.23,11.74681
10977.01,11.84333
10982.8,11.88846
10988.58,11.93681
10994.37,11.96228
11000.16,12.01269
11005.94,11.95774
11011.73,12.00338
11017.51,12.13785
11023.3,12.15608
11029.08,12.1247
11034.87,12.11804
11040.65,12.24846
11046.44,12.15103
11052.22,12.27854
11058.01,12.22501
11063.79,12.20537
11069.58,12.23541
11075.37,12.25331
11081.15,12.37
11086.94,12.31003
11092.72,12.33774
11098.51,12.35404
11104.29,12.35859
11110.08,12.34171
11115.87,12.32915
11121.65,12.39697
11127.44,12.32576
11133.22,12.4101
11139.01,12.4122
11144.79,12.50315
11150.58,12.42315
11156.36,12.46181
11162.15,12.4214
11167.93,12.4812
11173.72,12.50841
11179.5,12.54335
11185.29,12.51128
11191.08,12.53699
11196.86,12.60067
11202.65,12.56194
11208.43,12.68624
11214.22,12.70605
11220.0,12.68461
11225.79,12.74019
11231.58,12.75788
11237.36,12.70544
11243.15,12.67218
11248.93,12.66594
11254.72,12.75207
11260.5,12.81428
11266.29,12.71202
11272.07,12.84089
11277.86,12.75235
11283.64,12.77352
11289.43,12.72625
11295.21,12.90118
11301.0,12.83625
11306.79,12.87188
11312.57,12.92886
11318.36,12.86142
11324.14,12.90258
11329.93,13.01415
11335.71,12.94341
11341.5,12.93854
11347.28,12.93804
11353.07,12.86795
11358.86,12.90802
11364.64,12.99971
11370.43,12.95905
11376.21,12.91718
11382.0,12.93942
11387.78,12.98465
11393.57,12.99482
11399.35,12.96279
11405.14,13.02762
11410.92,12.9778
11416.71,12.90822
11422.5,13.06885
11428.28,13.04845
11434.07,13.05968
11439.85,13.12162
11445.64,12.97876
11451.42,13.03397
11457.21,13.16217
11462.99,13.04817
11468.78,13.11155
11474.57,13.06836
11480.35,13.12397
11486.14,13.11346
11491.92,13.12175
11497.71,13.07451
11503.49,13.07001
11509.28,13.10802
11515.06,13.14935
11520.85,13.12934
11526.63,13.12444
11532.42,13.18174
11538.21,13.13564
11543.99,13.26208
11549.78,13.15164
11555.56,13.1707
11561.35,13.24052
11567.13,13.20685
11572.92,13.21614
11578.7,13.29051
11584.49,13.08084
11590.28,13.23253
11596.06,13.19621
11601.85,13.26779
11607.63,13.18569
11613.42,13.18726
11619.2,13.27926
11624.99,13.22942
11630.77,13.30811
11636.56,13.23455
11642.34,13.25948
11648.13,13.35312
11653.92,13.29495
11659.7,13.2317
11665.49,13.18121
11671.27,13.34294
11677.06,13.15169
11682.84,13.19833
11688.63,13.32871
11694.41,13.16614
11700.2,13.11078
11705.99,13.30615
11711.77,13.30659
11717.56,13.25033
11723.34,13.0754
11729.13,13.14684
11734.91,13.36564
11740.7,13.34742
11746.48,13.28014
11752.27,13.19756
11758.05,13.15269
11763.84,13.20834
11769.63,13.22651
11775.41,13.19582
11781.2,13.20786
11786.98,13.11247
11792.77,13.09877
11798.55,13.04311
11804.34,13.07561
11810.12,13.08445
11815.91,13.32046
11821.7,13.17978
11827.48,13.1634
11833.27,13.00566
11839.05,13.24847
11844.84,13.18055
11850.62,13.13144
11856.41,13.1141
11862.19,13.14092
11867.98,13.07521
11873.76,13.09487
11879.55,13.00572
11885.34,13.07901
11891.12,13.10117
11896.91,13.04263
11902.69,13.0941
11908.48,12.9222
11914.26,12.94432
11920.05,13.04451
11925.83,12.92273
11931.62,13.04319
11937.41,12.92337
11943.19,12.91616
11948.98,13.01056
11954.76,12.84486
11960.55,12.87112
11966.33,12.8542
11972.12,12.9295
11977.9,12.90086
11983.69,12.75819
11989.47,12.79013
11995.26,12.80865
11999.12,12.65745