File: Data/NIR/S0081LDPE_2.csv
Wavenumber,Intensity
3999.706,3.105731
4005.491,3.110834
4011.277,3.110353
4017.062,3.115362
4022.848,3.114422
4028.633,3.120167
4034.419,3.122015
4040.204,3.12229
4045.99,3.128501
4051.775,3.133958
4057.561,3.129683
4063.346,3.130852
4069.132,3.132756
4074.917,3.136877
4080.703,3.138485
4086.488,3.143203
4092.274,3.140191
4098.059,3.14264
4103.845,3.149225
4109.63,3.144528
4115.416,3.146458
4121.201,3.150053
4126.987,3.151474
4132.772,3.14924
4138.558,3.151807
4144.343,3.157131
4150.129,3.155791
4155.914,3.158811
4161.7,3.159536
4167.485,3.161293
4173.271,3.166812
4179.056,3.166409
4184.842,3.176823
4190.627,3.179875
4196.413,3.189436
4202.198,3.199195
4207.983,3.204978
4213.769,3.210397
4219.555,3.217993
4225.34,3.22245
4231.125,3.223101
4236.911,3.233149
4242.697,3.235996
4248.482,3.228299
4254.268,3.229789
4260.053,3.24047
4265.838,3.253615
4271.624,3.257066
4277.41,3.25783
4283.195,3.261863
4288.98,3.265454
4294.766,3.269756
4300.552,3.269675
4306.337,3.265908
4312.123,3.266757
4317.908,3.251906
4323.693,3.243482
4329.479,3.252141
4335.265,3.26084
4341.05,3.263772
4346.835,3.270474
4352.621,3.27247
4358.407,3.280867
4364.192,3.285357
4369.978,3.284159
4375.763,3.290421
4381.548,3.292994
4387.334,3.294048
4393.12,3.301664
4398.905,3.30575
4404.69,3.321956
4410.476,3.333308
4416.262,3.352891
4422.047,3.369
4427.833,3.398037
4433.618,3.421432
4439.403,3.452455
4445.189,3.479699
4450.975,3.516348
4456.76,3.554065
4462.545,3.588271
4468.331,3.623939
4474.116,3.656138
4479.902,3.692418
4485.688,3.724967
4491.473,3.762153
4497.258,3.802978
4503.044,3.843639
4508.83,3.883615
4514.615,3.925848
4520.4,3.968877
4526.186,4.012235
4531.971,4.056643
4537.757,4.100354
4543.542,4.151169
4549.328,4.199387
4555.113,4.248283
4560.899,4.301831
4566.685,4.348433
4572.47,4.38679
4578.255,4.424437
4584.041,4.456872
4589.826,4.486453
4595.612,4.510634
4601.397,4.534532
4607.183,4.556335
4612.968,4.569819
4618.754,4.593367
4624.539,4.618351
4630.325,4.635263
4636.11,4.6458
4641.896,4.654039
4647.681,4.656027
4653.467,4.644897
4659.252,4.615195
4665.038,4.579916
4670.823,4.592741
4676.609,4.650529
4682.394,4.697803
4688.18,4.723247
4693.965,4.731608
4699.751,4.737744
4705.536,4.74078
4711.322,4.730697
4717.107,4.714531
4722.893,4.692797
4728.678,4.671742
4734.464,4.658432
4740.249,4.65149
4746.035,4.637908
4751.82,4.623825
4757.605,4.607017
4763.391,4.586609
4769.177,4.554257
4774.962,4.523622
4780.748,4.504415
4786.533,4.493949
4792.319,4.487347
4798.104,4.475133
4803.89,4.455084
4809.675,4.429577
4815.46,4.396755
4821.246,4.366397
4827.032,4.342284
4832.817,4.31903
4838.603,4.294055
4844.388,4.254295
4850.174,4.216611
4855.959,4.185235
4861.745,4.158493
4867.53,4.141592
4873.315,4.144103
4879.101,4.15281
4884.887,4.16183
4890.672,4.17916
4896.458,4.182755
4902.243,4.196991
4908.028,4.200904
4913.814,4.205072
4919.6,4.204407
4925.385,4.204511
4931.17,4.204417
4936.956,4.199002
4942.742,4.18783
4948.527,4.163778
4954.313,4.121112
4960.098,4.048586
4965.883,4.028255
4971.669,4.047064
4977.455,4.059544
4983.24,4.084772
4989.025,4.109444
4994.811,4.142178
5000.597,4.17894
5006.382,4.204385
5012.167,4.218073
5017.953,4.217551
5023.738,4.230635
5029.524,4.245835
5035.31,4.254905
5041.095,4.256404
5046.88,4.261398
5052.666,4.249921
5058.451,4.235703
5064.237,4.230225
5070.022,4.230946
5075.808,4.22794
5081.593,4.225621
5087.379,4.218511
5093.165,4.214019
5098.95,4.210209
5104.735,4.212494
5110.521,4.222802
5116.307,4.2307
5122.092,4.239692
5127.877,4.248537
5133.663,4.252675
5139.448,4.25169
5145.234,4.23838
5151.02,4.221385
5156.805,4.218101
5162.59,4.216188
5168.376,4.218575
5174.161,4.211727
5179.947,4.209131
5185.732,4.205795
5191.518,4.205069
5197.303,4.216806
5203.089,4.219831
5208.874,4.217959
5214.66,4.214051
5220.445,4.21253
5226.231,4.22409
5232.016,4.229988
5237.802,4.232333
5243.587,4.244325
5249.373,4.245817
5255.158,4.248695
5260.944,4.256222
5266.729,4.256419
5272.515,4.248332
5278.3,4.245509
5284.086,4.254816
5289.871,4.253931
5295.657,4.24307
5301.442,4.230824
5307.228,4.225039
5313.013,4.229037
5318.799,4.261289
5324.584,4.283535
5330.37,4.289702
5336.155,4.28211
5341.94,4.252953
5347.726,4.219573
5353.512,4.190141
5359.297,4.151374
5365.083,4.125033
5370.868,4.096381
5376.654,4.076921
5382.439,4.06789
5388.225,4.043661
5394.01,4.023861
5399.796,3.992882
5405.581,3.964482
5411.367,3.933745
5417.152,3.886228
5422.938,3.866082
5428.723,3.860786
5434.509,3.848023
5440.294,3.841945
5446.08,3.830715
5451.865,3.819314
5457.65,3.816478
5463.436,3.811444
5469.222,3.79431
5475.007,3.785877
5480.792,3.762593
5486.578,3.755271
5492.363,3.752485
5498.149,3.747618
5503.935,3.753191
5509.72,3.756277
5515.505,3.763373
5521.291,3.76511
5527.077,3.766019
5532.862,3.761051
5538.647,3.760627
5544.433,3.753034
5550.219,3.7554
5556.004,3.750674
5561.79,3.759347
5567.575,3.776062
5573.36,3.794685
5579.146,3.817088
5584.932,3.837017
5590.717,3.840122
5596.502,3.833132
5602.288,3.819137
5608.073,3.792126
5613.859,3.768231
5619.645,3.743205
5625.43,3.723588
5631.215,3.705494
5637.001,3.681832
5642.786,3.653413
5648.572,3.610073
5654.357,3.567219
5660.143,3.537693
5665.929,3.535496
5671.714,3.547452
5677.5,3.570785
5683.285,3.589759
5689.07,3.607672
5694.856,3.630576
5700.642,3.662308
5706.427,3.695417
5712.212,3.715722
5717.998,3.716835
5723.783,3.692769
5729.569,3.634762
5735.354,3.618547
5741.14,3.60214
5746.925,3.569999
5752.711,3.545902
5758.496,3.524234
5764.282,3.50702
5770.067,3.493479
5775.853,3.491117
5781.638,3.498329
5787.424,3.505574
5793.209,3.515947
5798.995,3.523285
5804.78,3.534061
5810.566,3.540929
5816.352,3.555842
5822.137,3.568686
5827.922,3.588144
5833.708,3.61079
5839.493,3.637154
5845.279,3.673751
5851.064,3.725712
5856.85,3.795416
5862.635,3.891746
5868.421,4.023236
5874.206,4.169755
5879.992,4.346434
5885.777,4.523639
5891.563,4.671912
5897.348,4.783207
5903.134,4.876884
5908.919,5.004024
5914.705,5.17555
5920.49,5.39035
5926.276,5.628568
5932.061,5.863791
5937.847,6.067003
5943.632,6.251926
5949.418,6.424541
5955.203,6.589344
5960.989,6.758971
5966.774,6.941505
5972.56,7.113386
5978.345,7.278103
5984.131,7.422975
5989.916,7.560122
5995.702,7.69741
6001.487,7.817557
6007.272,7.936303
6013.058,8.051185
6018.844,8.162647
6024.629,8.26362
6030.415,8.356888
6036.2,8.442898
6041.985,8.523405
6047.771,8.595819
6053.557,8.66867
6059.342,8.725704
6065.128,8.78354
6070.913,8.843441
6076.698,8.885756
6082.484,8.936203
6088.27,8.970993
6094.055,8.999247
6099.841,9.025693
6105.626,9.04866
6111.412,9.076192
6117.197,9.109216
6122.982,9.151814
6128.768,9.201739
6134.554,9.249527
6140.339,9.301018
6146.125,9.3445
6151.91,9.391987
6157.695,9.438662
6163.481,9.481215
6169.267,9.526879
6175.052,9.567221
6180.837,9.604895
6186.623,9.636903
6192.408,9.661448
6198.194,9.692341
6203.979,9.718836
6209.765,9.741965
6215.551,9.762972
6221.336,9.779077
6227.121,9.802084
6232.907,9.82221
6238.692,9.829745
6244.478,9.842673
6250.264,9.849619
6256.049,9.855935
6261.834,9.865483
6267.62,9.876228
6273.405,9.882864
6279.191,9.892862
6284.977,9.896536
6290.762,9.900373
6296.547,9.908017
6302.333,9.910849
6308.118,9.918867
6313.904,9.917462
6319.689,9.914325
6325.475,9.907649
6331.26,9.890974
6337.046,9.880362
6342.831,9.865813
6348.617,9.842949
6354.402,9.817696
6360.188,9.79267
6365.974,9.757374
6371.759,9.710665
6377.544,9.67251
6383.33,9.650847
6389.115,9.634367
6394.901,9.624063
6400.687,9.593472
6406.472,9.539963
6412.257,9.479382
6418.043,9.428663
6423.828,9.39738
6429.614,9.374976
6435.399,9.344904
6441.185,9.286245
6446.97,9.218059
6452.756,9.132987
6458.541,9.031402
6464.327,8.878118
6470.112,8.653741
6475.897,8.399042
6481.684,8.248164
6487.469,8.254128
6493.254,8.33329
6499.04,8.41553
6504.825,8.490901
6510.61,8.553149
6516.396,8.598566
6522.182,8.639702
6527.967,8.674235
6533.753,8.700395
6539.538,8.723408
6545.324,8.741239
6551.109,8.768342
6556.895,8.787368
6562.68,8.799294
6568.466,8.835214
6574.251,8.864539
6580.037,8.890043
6585.822,8.893913
6591.607,8.896812
6597.393,8.902221
6603.179,8.906676
6608.964,8.904808
6614.75,8.895362
6620.535,8.889882
6626.32,8.876148
6632.106,8.85966
6637.892,8.841911
6643.677,8.819599
6649.463,8.79926
6655.248,8.770883
6661.034,8.749061
6666.819,8.705226
6672.604,8.683226
6678.39,8.641933
6684.176,8.607469
6689.961,8.5679
6695.747,8.520683
6701.532,8.477819
6707.317,8.427597
6713.103,8.375955
6718.889,8.319584
6724.674,8.274102
6730.459,8.221622
6736.245,8.175495
6742.03,8.126015
6747.816,8.075972
6753.602,8.026352
6759.387,7.975515
6765.173,7.930724
6770.958,7.868081
6776.743,7.802188
6782.529,7.718722
6788.314,7.633369
6794.1,7.546042
6799.886,7.449607
6805.671,7.356442
6811.457,7.270736
6817.242,7.172925
6823.027,7.074788
6828.813,6.978574
6834.599,6.893898
6840.384,6.83667
6846.169,6.794789
6851.955,6.746019
6857.74,6.698659
6863.526,6.653328
6869.312,6.596579
6875.097,6.545059
6880.882,6.477717
6886.668,6.405359
6892.453,6.335204
6898.239,6.271451
6904.024,6.219655
6909.81,6.175296
6915.596,6.124884
6921.381,6.061483
6927.166,5.991708
6932.952,5.902728
6938.737,5.81115
6944.523,5.72081
6950.309,5.66946
6956.094,5.647812
6961.879,5.644119
6967.665,5.637299
6973.45,5.643704
6979.236,5.63373
6985.021,5.614279
6990.807,5.591746
6996.592,5.567815
7002.378,5.535715
7008.163,5.486362
7013.949,5.444494
7019.734,5.413573
7025.52,5.390152
7031.305,5.404676
7037.091,5.410252
7042.876,5.407455
7048.662,5.348796
7054.447,5.259006
7060.232,5.159338
7066.019,5.156882
7071.804,5.258306
7077.589,5.393088
7083.375,5.510199
7089.16,5.59042
7094.946,5.662233
7100.731,5.735039
7106.517,5.836449
7112.302,5.935993
7118.088,6.03702
7123.873,6.095781
7129.659,6.124089
7135.444,6.09946
7141.229,6.032885
7147.015,5.921544
7152.801,5.744014
7158.586,5.478364
7164.372,5.104663
7170.157,4.846768
7175.942,4.85102
7181.729,5.047593
7187.514,5.262584
7193.299,5.505341
7199.085,5.737393
7204.87,5.972183
7210.655,6.187771
7216.441,6.388633
7222.227,6.593302
7228.012,6.814035
7233.798,7.031891
7239.583,7.202292
7245.369,7.387187
7251.154,7.570626
7256.939,7.750959
7262.725,7.943841
7268.511,8.116567
7274.296,8.304113
7280.082,8.480059
7285.867,8.650873
7291.652,8.819928
7297.438,8.993451
7303.224,9.143753
7309.009,9.333418
7314.794,9.481738
7320.58,9.62748
7326.365,9.751515
7332.151,9.844469
7337.937,9.923609
7343.722,10.00374
7349.508,10.06812
7355.293,10.15898
7361.079,10.22992
7366.864,10.32238
7372.649,10.40224
7378.435,10.49154
7384.221,10.57831
7390.006,10.64102
7395.792,10.67694
7401.577,10.71756
7407.362,10.75463
7413.148,10.7816
7418.934,10.80616
7424.719,10.83183
7430.504,10.85026
7436.29,10.86206
7442.075,10.88242
7447.861,10.89603
7453.646,10.909
7459.432,10.91922
7465.218,10.92794
7471.003,10.92955
7476.788,10.93685
7482.574,10.9433
7488.359,10.9441
7494.145,10.94454
7499.931,10.93741
7505.716,10.9394
7511.501,10.93001
7517.287,10.9245
7523.072,10.92388
7528.858,10.91243
7534.644,10.90298
7540.429,10.90222
7546.214,10.88454
7552.0,10.87392
7557.785,10.86285
7563.571,10.85262
7569.356,10.83185
7575.142,10.82681
7580.927,10.81057
7586.713,10.79741
7592.498,10.7774
7598.284,10.75693
7604.069,10.74287
7609.854,10.72211
7615.641,10.70321
7621.426,10.68025
7627.211,10.6466
7632.997,10.62734
7638.782,10.59465
7644.568,10.56141
7650.354,10.55111
7656.139,10.52279
7661.924,10.50374
7667.71,10.47316
7673.495,10.45362
7679.281,10.43177
7685.066,10.41629
7690.852,10.40738
7696.637,10.40041
7702.423,10.36899
7708.208,10.34814
7713.994,10.32881
7719.779,10.31406
7725.564,10.30285
7731.35,10.26774
7737.136,10.26394
7742.921,10.23959
7748.707,10.22584
7754.492,10.20392
7760.277,10.18114
7766.063,10.15402
7771.849,10.14107
7777.634,10.12186
7783.42,10.11
7789.205,10.08598
7794.991,10.07363
7800.776,10.0625
7806.562,10.03165
7812.347,10.00846
7818.133,9.989257
7823.918,9.967519
7829.704,9.934317
7835.489,9.912586
7841.274,9.88288
7847.06,9.849726
7852.846,9.823939
7858.631,9.775971
7864.417,9.7489
7870.202,9.707804
7875.987,9.666443
7881.773,9.631448
7887.559,9.586091
7893.344,9.542449
7899.13,9.502483
7904.915,9.445339
7910.7,9.39229
7916.486,9.349004
7922.271,9.291708
7928.057,9.234241
7933.843,9.176458
7939.628,9.120608
7945.414,9.051821
7951.199,8.987735
7956.984,8.923996
7962.77,8.845006
7968.556,8.787051
7974.341,8.7091
7980.126,8.62875
7985.912,8.56025
7991.697,8.470098
7997.483,8.405027
8003.269,8.309185
8009.054,8.237732
8014.839,8.145617
8020.625,8.04962
8026.41,7.954236
8032.196,7.846045
8037.981,7.762904
8043.767,7.669082
8049.553,7.54094
8055.338,7.446949
8061.124,7.33582
8066.909,7.224917
8072.694,7.116446
8078.48,6.997118
8084.266,6.886741
8090.051,6.758376
8095.836,6.651317
8101.622,6.525105
8107.407,6.386933
8113.192,6.260886
8118.979,6.128226
8124.764,6.009665
8130.55,5.853616
8136.335,5.728682
8142.12,5.589704
8147.906,5.453506
8153.691,5.317689
8159.477,5.194152
8165.263,5.057496
8171.048,4.939881
8176.833,4.815093
8182.619,4.722744
8188.404,4.621443
8194.189,4.540613
8199.976,4.476582
8205.761,4.421585
8211.546,4.390055
8217.332,4.36458
8223.117,4.356464
8228.902,4.347922
8234.688,4.360125
8240.474,4.36752
8246.259,4.377928
8252.045,4.397562
8257.83,4.421537
8263.616,4.447194
8269.401,4.483465
8275.187,4.540722
8280.973,4.578905
8286.758,4.658126
8292.543,4.732099
8298.329,4.806283
8304.114,4.877446
8309.899,4.957945
8315.686,5.043171
8321.471,5.105826
8327.256,5.201717
8333.042,5.284147
8338.827,5.372964
8344.612,5.473039
8350.398,5.573988
8356.184,5.673194
8361.969,5.77947
8367.755,5.874195
8373.54,5.965891
8379.325,6.053369
8385.111,6.156147
8390.896,6.226795
8396.683,6.274012
8402.468,6.308384
8408.253,6.347488
8414.039,6.355391
8419.824,6.394394
8425.609,6.406523
8431.396,6.485693
8437.181,6.590282
8442.966,6.703554
8448.752,6.842931
8454.537,6.974088
8460.322,7.094131
8466.108,7.195237
8471.894,7.293478
8477.679,7.403999
8483.465,7.50946
8489.25,7.633075
8495.035,7.733857
8500.821,7.800292
8506.606,7.866683
8512.392,7.90364
8518.178,7.963983
8523.963,8.030267
8529.748,8.06119
8535.534,8.088924
8541.319,8.05236
8547.105,7.997567
8552.891,7.899903
8558.676,7.790147
8564.462,7.74683
8570.247,7.831038
8576.032,7.970767
8581.818,8.114951
8587.604,8.272042
8593.389,8.456395
8599.175,8.635094
8604.96,8.823297
8610.745,9.028671
8616.531,9.184851
8622.316,9.375608
8628.102,9.510576
8633.888,9.646272
8639.673,9.764198
8645.458,9.874992
8651.244,9.983576
8657.029,10.07439
8662.814,10.15071
8668.601,10.22404
8674.386,10.29876
8680.172,10.36415
8685.957,10.43488
8691.742,10.50508
8697.528,10.61103
8703.313,10.69747
8709.099,10.79759
8714.885,10.89948
8720.67,10.99284
8726.455,11.08245
8732.241,11.2044
8738.026,11.27826
8743.812,11.3493
8749.598,11.42928
8755.383,11.51808
8761.168,11.58468
8766.954,11.63248
8772.739,11.69506
8778.524,11.74247
8784.311,11.80148
8790.096,11.85025
8795.881,11.88758
8801.667,11.92398
8807.452,11.95536
8813.237,11.99378
8819.023,12.01387
8824.809,12.03282
8830.595,12.05446
8836.38,12.0699
8842.165,12.07773
8847.951,12.09403
8853.736,12.10288
8859.521,12.1085
8865.308,12.13038
8871.093,12.14091
8876.878,12.13244
8882.664,12.15004
8888.449,12.14946
8894.234,12.14504
8900.021,12.16266
8905.806,12.15499
8911.591,12.1476
8917.377,12.1478
8923.162,12.14002
8928.947,12.14511
8934.733,12.13212
8940.519,12.12736
8946.304,12.12793
8952.09,12.14117
8957.875,12.12686
8963.661,12.12575
8969.446,12.13217
8975.231,12.1235
8981.018,12.14885
8986.803,12.14726
8992.588,12.14779
8998.374,12.14662
9004.159,12.16281
9009.944,12.16645
9015.73,12.17407
9021.516,12.17201
9027.301,12.18723
9033.087,12.20199
9038.872,12.17305
9044.657,12.20355
9050.443,12.21786
9056.229,12.19921
9062.014,12.21117
9067.8,12.20358
9073.585,12.21912
9079.37,12.2056
9085.156,12.2239
9090.941,12.2145
9096.727,12.23237
9102.513,12.23462
9108.298,12.22265
9114.084,12.21371
9119.869,12.21953
9125.654,12.20922
9131.44,12.20634
9137.226,12.19614
9143.011,12.18771
9148.797,12.18279
9154.582,12.18379
9160.367,12.2013
9166.153,12.17073
9171.938,12.1741
9177.724,12.17399
9183.51,12.14564
9189.295,12.13768
9195.08,12.13432
9200.866,12.12927
9206.651,12.1169
9212.437,12.1223
9218.223,12.09534
9224.008,12.09888
9229.793,12.08803
9235.579,12.07604
9241.364,12.06118
9247.15,12.07311
9252.936,12.0749
9258.721,12.05385
9264.507,12.05269
9270.292,12.05751
9276.077,12.03513
9281.863,12.03754
9287.648,12.01207
9293.434,12.02328
9299.22,12.02504
9305.005,12.02557
9310.79,12.01071
9316.576,12.02452
9322.361,12.00917
9328.146,12.01629
9333.933,12.00664
9339.718,12.0039
9345.503,12.00139
9351.289,11.99352
9357.074,11.9676
9362.859,11.96534
9368.646,11.95442
9374.431,11.93637
9380.217,11.93487
9386.002,11.91335
9391.787,11.88904
9397.573,11.89802
9403.358,11.87741
9409.144,11.86029
9414.93,11.84198
9420.715,11.84027
9426.5,11.79753
9432.286,11.78785
9438.071,11.77627
9443.856,11.74506
9449.643,11.72487
9455.428,11.72398
9461.213,11.68612
9466.999,11.66844
9472.784,11.64215
9478.569,11.64668
9484.355,11.65573
9490.141,11.61172
9495.926,11.60065
9501.712,11.59829
9507.497,11.59343
9513.282,11.59628
9519.068,11.56717
9524.854,11.56188
9530.64,11.54718
9536.425,11.52495
9542.21,11.53228
9547.996,11.50165
9553.781,11.50569
9559.566,11.45574
9565.353,11.46351
9571.138,11.42503
9576.923,11.44458
9582.709,11.38809
9588.494,11.40598
9594.279,11.40956
9600.065,11.41727
9605.851,11.41108
9611.636,11.42916
9617.422,11.44522
9623.207,11.4537
9628.992,11.48084
9634.778,11.50294
9640.563,11.51406
9646.349,11.57001
9652.135,11.57182
9657.92,11.59975
9663.706,11.63817
9669.491,11.63972
9675.276,11.69109
9681.063,11.69338
9686.848,11.75108
9692.633,11.7395
9698.419,11.77547
9704.204,11.77643
9709.989,11.82313
9715.775,11.86996
9721.561,11.87626
9727.346,11.91478
9733.132,11.92923
9738.917,11.97448
9744.702,11.95251
9750.488,12.00842
9756.273,12.03302
9762.059,12.05553
9767.845,12.03307
9773.63,12.02696
9779.415,12.06116
9785.201,12.03159
9790.986,12.08653
9796.771,12.08781
9802.558,12.07554
9808.343,12.05761
9814.129,12.0626
9819.914,12.05741
9825.699,12.07439
9831.485,12.09746
9837.271,12.11579
9843.056,12.12283
9848.842,12.13202
9854.627,12.1734
9860.412,12.21947
9866.198,12.25904
9871.983,12.27232
9877.769,12.30937
9883.555,12.3288
9889.34,12.36894
9895.125,12.39778
9900.911,12.38863
9906.696,12.41548
9912.481,12.42968
9918.268,12.47594
9924.053,12.47512
9929.838,12.51811
9935.624,12.53898
9941.409,12.57274
9947.195,12.56546
9952.98,12.5947
9958.766,12.63071
9964.552,12.6511
9970.337,12.71202
9976.122,12.68102
9981.908,12.67899
9987.693,12.69864
9993.479,12.73138
9999.265,12.71971
10005.05,12.70173
10010.83,12.74052
10016.62,12.74377
10022.41,12.74216
10028.19,12.7774
10033.98,12.79407
10039.76,12.78512
10045.55,12.83074
10051.33,12.85819
10057.12,12.851
10062.9,12.88101
10068.69,12.84374
10074.48,12.87112
10080.26,12.87204
10086.05,12.89576
10091.83,12.87209
10097.62,12.89184
10103.4,12.93112
10109.19,12.91054
10114.97,12.89495
10120.76,12.9248
10126.54,12.94577
10132.33,12.92075
10138.12,12.94572
10143.9,12.94295
10149.69,12.93863
10155.47,12.91015
10161.26,12.95622
10167.04,12.94129
10172.83,12.95552
10178.61,12.94159
10184.4,12.94516
10190.19,12.97875
10195.97,12.96646
10201.76,12.93327
10207.54,12.95389
10213.33,12.94541
10219.11,12.97017
10224.9,12.98295
10230.68,12.95849
10236.47,12.96256
10242.25,12.94262
10248.04,12.94995
10253.83,12.96332
10259.61,12.95244
10265.4,12.94403
10271.18,12.94023
10276.97,12.93472
10282.75,12.90329
10288.54,12.93118
10294.32,12.94235
10300.11,12.93675
10305.9,12.90844
10311.68,12.88133
10317.47,12.90733
10323.25,12.92225
10329.04,12.89095
10334.82,12.92172
10340.61,12.90479
10346.39,12.90714
10352.18,12.89145
10357.96,12.8896
10363.75,12.89611
10369.54,12.86919
10375.32,12.8591
10381.11,12.84551
10386.89,12.86005
10392.68,12.81706
10398.46,12.84952
10404.25,12.81598
10410.03,12.85002
10415.82,12.80365
10421.61,12.81864
10427.39,12.82477
10433.18,12.74463
10438.96,12.75986
10444.75,12.79453
10450.53,12.71909
10456.32,12.75994
10462.1,12.72348
10467.89,12.68804
10473.67,12.67819
10479.46,12.69258
10485.25,12.66995
10491.03,12.64309
10496.82,12.59272
10502.6,12.60644
10508.39,12.57296
10514.17,12.53729
10519.96,12.49317
10525.74,12.50598
10531.53,12.43771
10537.32,12.40022
10543.1,12.38207
10548.89,12.3386
10554.67,12.2392
10560.46,12.22266
10566.24,12.18303
10572.03,12.11183
10577.81,12.00967
10583.6,12.0049
10589.38,11.92627
10595.17,11.90494
10600.96,11.79207
10606.74,11.69876
10612.53,11.63818
10618.31,11.57989
10624.1,11.44277
10629.88,11.3842
10635.67,11.23909
10641.45,11.21266
10647.24,11.10403
10653.03,11.00673
10658.81,10.89097
10664.6,10.81872
10670.38,10.73307
10676.17,10.64758
10681.95,10.60908
10687.74,10.51809
10693.52,10.55142
10699.31,10.45983
10705.09,10.46129
10710.88,10.39972
10716.67,10.3244
10722.45,10.33354
10728.24,10.35198
10734.02,10.3324
10739.81,10.37167
10745.59,10.38312
10751.38,10.41536
10757.16,10.45318
10762.95,10.47936
10768.74,10.51394
10774.52,10.54783
10780.31,10.64576
10786.09,10.70972
10791.88,10.65081
10797.66,10.75885
10803.45,10.81348
10809.23,10.90427
10815.02,11.00041
10820.8,11.02326
10826.59,11.05756
10832.38,11.1409
10838.16,11.26414
10843.95,11.24418
10849.73,11.35298
10855.52,11.38657
10861.3,11.50952
10867.09,11.58007
10872.87,11.63867
10878.66,11.72716
10884.45,11.72741
10890.23,11.78761
10896.02,11.78534
10901.8,11.91302
10907.59,11.97931
10913.37,11.99459
10919.16,12.02095
10924.94,12.0794
10930.73,12.10778
10936.51,12.21756
10942.3,12.19636
10948.09,12.25341
10953.87,12.30223
10959.66,12.34094
10965.44,12.46358
10971.23,12.50915
10977.01,12.42418
10982.8,12.54904
10988.58,12.55404
10994.37,12.60236
11000.16,12.5937
11005.94,12.63687
11011.73,12.73147
11017.51,12.76353
11023.3,12.77808
11029.08,12.81907
11034.87,12.80498
11040.65,12.8553
11046.44,12.86919
11052.22,12.87154
11058.01,12.9308
11063.79,12.98657
11069.58,12.94253
11075.37,12.95536
11081.15,12.94868
11086.94,12.91689
11092.72,12.98616
11098.51,12.97302
11104.29,12.98062
11110.08,12.96259
11115.87,12.97945
11121.65,12.99683
11127.44,12.98742
11133.22,12.98053
11139.01,13.03813
11144.79,13.11031
11150.58,13.1496
11156.36,13.09981
11162.15,13.16866
11167.93,13.13224
11173.72,13.11819
11179.5,13.11869
11185.29,13.15848
11191.08,13.1681
11196.86,13.26148
11202.65,13.22927
11208.43,13.27287
11214.22,13.35725
11220.0,13.31442
11225.79,13.3296
11231.58,13.35505
11237.36,13.34766
11243.15,13.36475
11248.93,13.45111
11254.72,13.48181
11260.5,13.55434
11266.29,13.39878
11272.07,13.40272
11277.86,13.49818
11283.64,13.53891
11289.43,13.49721
11295.21,13.44429
11301.0,13.45139
11306.79,13.56681
11312.57,13.6203
11318.36,13.49198
11324.14,13.61165
11329.93,13.59361
11335.71,13.56771
11341.5,13.62501
11347.28,13.62726
11353.07,13.67017
11358.86,13.64158
11364.64,13.58671
11370.43,13.60145
11376.21,13.69266
11382.0,13.70182
11387.78,13.64199
11393.57,13.68653
11399.35,13.66468
11405.14,13.68191
11410.92,13.67081
11416.71,13.69917
11422.5,13.73505
11428.28,13.71208
11434.07,13.81101
11439.85,13.77745
11445.64,13.61154
11451.42,13.80042
11457.21,13.7607
11462.99,13.74809
11468.78,13.72455
11474.57,13.81866
11480.35,13.84944
11486.14,13.71951
11491.92,13.83819
11497.71,13.754
11503.49,13.81384
11509.28,13.83745
11515.06,13.84588
11520.85,13.879
11526.63,13.83417
11532.42,13.81632
11538.21,13.79855
11543.99,13.8552
11549.78,13.88751
11555.56,13.82123
11561.35,13.92544
11567.13,13.81287
11572.92,13.78326
11578.7,13.93658
11584.49,13.84175
11590.28,13.93642
11596.06,13.91221
11601.85,13.85324
11607.63,13.87243
11613.42,13.91588
11619.2,13.96727
11624.99,14.04202
11630.77,13.90937
11636.56,13.98998
11642.34,13.92837
11648.13,13.99071
11653.92,13.81121
11659.7,14.05642
11665.49,13.7914
11671.27,14.02355
11677.06,13.88548
11682.84,13.86709
11688.63,13.97151
11694.41,13.94149
11700.2,13.9414
11705.99,13.9449
11711.77,13.87557
11717.56,13.96398
11723.34,13.92417
11729.13,13.89794
11734.91,13.92301
11740.7,13.86927
11746.48,13.91276
11752.27,14.03453
11758.05,13.96245
11763.84,13.96931
11769.63,13.90211
11775.41,13.9252
11781.2,13.9361
11786.98,13.88057
11792.77,13.84519
11798.55,13.98982
11804.34,13.80799
11810.12,13.97673
11815.91,13.86672
11821.7,13.85451
11827.48,13.89157
11833.27,13.96611
11839.05,13.84339
11844.84,13.93358
11850.62,13.71666
11856.41,13.82607
11862.19,13.85544
11867.98,14.02043
11873.76,13.84521
11879.55,13.99688
11885.34,13.73687
11891.12,13.91688
11896.91,13.80937
11902.69,13.81409
11908.48,13.89079
11914.26,13.65392
11920.05,13.96526
11925.83,13.92161
11931.62,13.97397
11937.41,13.76402
11943.19,13.80462
11948.98,13.90097
11954.76,13.86378
11960.55,13.91352
11966.33,13.74329
11972.12,13.66859
11977.9,13.72803
11983.69,13.78935
11989.47,13.76987
11995.26,13.63214
11999.12,13.91124