File: Data/NIR/S0081LDPE_4.csv
Wavenumber,Intensity
3999.706,2.942806
4005.491,2.940414
4011.277,2.944974
4017.062,2.944643
4022.848,2.951088
4028.633,2.95947
4034.419,2.959618
4040.204,2.95557
4045.99,2.965755
4051.775,2.966405
4057.561,2.967237
4063.346,2.973945
4069.132,2.975665
4074.917,2.976763
4080.703,2.978857
4086.488,2.976305
4092.274,2.978378
4098.059,2.980093
4103.845,2.989173
4109.63,2.986513
4115.416,2.986281
4121.201,2.989777
4126.987,2.992064
4132.772,2.991463
4138.558,2.990214
4144.343,2.995749
4150.129,2.99676
4155.914,2.999527
4161.7,2.997508
4167.485,3.004447
4173.271,3.009829
4179.056,3.016674
4184.842,3.013418
4190.627,3.019919
4196.413,3.035751
4202.198,3.039747
4207.983,3.043041
4213.769,3.049816
4219.555,3.060313
4225.34,3.059398
4231.125,3.068394
4236.911,3.074475
4242.697,3.071459
4248.482,3.068447
4254.268,3.071939
4260.053,3.080492
4265.838,3.089712
4271.624,3.090666
4277.41,3.097726
4283.195,3.105228
4288.98,3.101323
4294.766,3.107116
4300.552,3.110018
4306.337,3.106698
4312.123,3.1038
4317.908,3.097888
4323.693,3.091774
4329.479,3.095425
4335.265,3.100541
4341.05,3.10499
4346.835,3.104805
4352.621,3.113935
4358.407,3.114829
4364.192,3.114671
4369.978,3.124914
4375.763,3.126026
4381.548,3.128151
4387.334,3.128236
4393.12,3.13768
4398.905,3.142246
4404.69,3.157175
4410.476,3.178967
4416.262,3.196767
4422.047,3.222622
4427.833,3.251194
4433.618,3.277241
4439.403,3.310988
4445.189,3.343706
4450.975,3.380187
4456.76,3.417473
4462.545,3.454334
4468.331,3.493043
4474.116,3.524462
4479.902,3.560974
4485.688,3.601523
4491.473,3.636107
4497.258,3.674984
4503.044,3.713777
4508.83,3.754516
4514.615,3.796729
4520.4,3.843139
4526.186,3.879194
4531.971,3.919435
4537.757,3.968673
4543.542,4.012463
4549.328,4.063794
4555.113,4.1109
4560.899,4.162795
4566.685,4.20925
4572.47,4.25265
4578.255,4.285259
4584.041,4.31665
4589.826,4.34316
4595.612,4.37265
4601.397,4.39083
4607.183,4.406395
4612.968,4.429841
4618.754,4.446007
4624.539,4.469707
4630.325,4.492323
4636.11,4.497862
4641.896,4.510068
4647.681,4.509451
4653.467,4.49753
4659.252,4.464776
4665.038,4.432513
4670.823,4.450083
4676.609,4.499173
4682.394,4.545149
4688.18,4.57056
4693.965,4.582448
4699.751,4.58603
4705.536,4.588431
4711.322,4.579933
4717.107,4.567737
4722.893,4.543836
4728.678,4.524009
4734.464,4.510095
4740.249,4.503537
4746.035,4.490976
4751.82,4.474025
4757.605,4.464267
4763.391,4.439205
4769.177,4.410439
4774.962,4.376196
4780.748,4.35902
4786.533,4.350699
4792.319,4.339398
4798.104,4.326846
4803.89,4.309733
4809.675,4.286654
4815.46,4.261557
4821.246,4.22999
4827.032,4.202121
4832.817,4.179077
4838.603,4.154191
4844.388,4.118979
4850.174,4.078074
4855.959,4.048456
4861.745,4.026543
4867.53,4.005246
4873.315,4.006758
4879.101,4.01654
4884.887,4.028809
4890.672,4.04095
4896.458,4.0526
4902.243,4.055848
4908.028,4.067301
4913.814,4.068579
4919.6,4.063946
4925.385,4.059236
4931.17,4.060412
4936.956,4.059388
4942.742,4.053849
4948.527,4.02751
4954.313,3.97665
4960.098,3.913444
4965.883,3.88597
4971.669,3.907606
4977.455,3.926557
4983.24,3.942596
4989.025,3.970899
4994.811,4.003096
5000.597,4.043854
5006.382,4.065164
5012.167,4.074661
5017.953,4.077339
5023.738,4.092696
5029.524,4.105901
5035.31,4.115191
5041.095,4.119382
5046.88,4.118241
5052.666,4.110659
5058.451,4.094097
5064.237,4.088304
5070.022,4.088218
5075.808,4.090714
5081.593,4.084323
5087.379,4.079806
5093.165,4.072631
5098.95,4.066407
5104.735,4.073262
5110.521,4.082479
5116.307,4.091194
5122.092,4.101487
5127.877,4.105327
5133.663,4.11179
5139.448,4.109674
5145.234,4.097284
5151.02,4.087004
5156.805,4.075394
5162.59,4.07299
5168.376,4.074434
5174.161,4.069798
5179.947,4.067348
5185.732,4.066298
5191.518,4.066258
5197.303,4.073669
5203.089,4.073267
5208.874,4.078017
5214.66,4.068781
5220.445,4.073948
5226.231,4.082863
5232.016,4.086656
5237.802,4.088953
5243.587,4.104701
5249.373,4.105517
5255.158,4.115291
5260.944,4.11117
5266.729,4.109575
5272.515,4.101371
5278.3,4.103795
5284.086,4.108751
5289.871,4.115679
5295.657,4.099508
5301.442,4.095044
5307.228,4.084404
5313.013,4.08672
5318.799,4.120994
5324.584,4.143843
5330.37,4.141209
5336.155,4.135312
5341.94,4.10749
5347.726,4.076877
5353.512,4.04115
5359.297,4.005016
5365.083,3.982019
5370.868,3.95134
5376.654,3.942672
5382.439,3.924151
5388.225,3.905208
5394.01,3.887622
5399.796,3.851314
5405.581,3.825504
5411.367,3.798077
5417.152,3.739573
5422.938,3.725034
5428.723,3.712877
5434.509,3.701757
5440.294,3.701014
5446.08,3.691055
5451.865,3.670873
5457.65,3.664964
5463.436,3.661959
5469.222,3.651067
5475.007,3.640644
5480.792,3.618376
5486.578,3.604141
5492.363,3.604554
5498.149,3.600231
5503.935,3.603197
5509.72,3.611212
5515.505,3.615948
5521.291,3.619908
5527.077,3.616344
5532.862,3.614154
5538.647,3.608344
5544.433,3.606923
5550.219,3.603649
5556.004,3.605077
5561.79,3.610478
5567.575,3.629055
5573.36,3.653939
5579.146,3.673079
5584.932,3.690788
5590.717,3.696461
5596.502,3.690883
5602.288,3.671945
5608.073,3.647727
5613.859,3.620061
5619.645,3.602134
5625.43,3.571573
5631.215,3.54711
5637.001,3.526531
5642.786,3.498375
5648.572,3.450126
5654.357,3.396901
5660.143,3.363148
5665.929,3.358039
5671.714,3.375391
5677.5,3.395061
5683.285,3.421326
5689.07,3.441251
5694.856,3.468649
5700.642,3.502147
5706.427,3.540093
5712.212,3.562614
5717.998,3.568694
5723.783,3.539459
5729.569,3.476848
5735.354,3.450788
5741.14,3.428766
5746.925,3.399124
5752.711,3.367155
5758.496,3.343506
5764.282,3.327824
5770.067,3.309554
5775.853,3.3116
5781.638,3.320256
5787.424,3.323137
5793.209,3.333597
5798.995,3.343901
5804.78,3.352594
5810.566,3.360771
5816.352,3.379273
5822.137,3.394458
5827.922,3.419921
5833.708,3.447976
5839.493,3.471911
5845.279,3.514382
5851.064,3.572658
5856.85,3.647074
5862.635,3.752905
5868.421,3.8751
5874.206,4.02741
5879.992,4.197851
5885.777,4.371499
5891.563,4.517353
5897.348,4.623552
5903.134,4.721716
5908.919,4.840641
5914.705,5.015909
5920.49,5.223243
5926.276,5.458969
5932.061,5.686843
5937.847,5.897284
5943.632,6.083375
5949.418,6.249249
5955.203,6.411945
5960.989,6.585815
5966.774,6.764477
5972.56,6.940002
5978.345,7.110208
5984.131,7.256794
5989.916,7.398643
5995.702,7.527339
6001.487,7.659165
6007.272,7.774948
6013.058,7.895431
6018.844,8.006836
6024.629,8.112515
6030.415,8.211928
6036.2,8.295759
6041.985,8.378014
6047.771,8.455659
6053.557,8.522804
6059.342,8.596861
6065.128,8.651348
6070.913,8.702406
6076.698,8.75928
6082.484,8.805957
6088.27,8.843873
6094.055,8.876057
6099.841,8.898819
6105.626,8.924592
6111.412,8.952413
6117.197,8.995521
6122.982,9.04208
6128.768,9.082439
6134.554,9.135848
6140.339,9.187416
6146.125,9.235386
6151.91,9.280945
6157.695,9.331499
6163.481,9.377777
6169.267,9.425969
6175.052,9.471551
6180.837,9.50505
6186.623,9.536749
6192.408,9.572612
6198.194,9.59568
6203.979,9.622106
6209.765,9.650041
6215.551,9.665141
6221.336,9.692484
6227.121,9.71312
6232.907,9.733025
6238.692,9.736628
6244.478,9.754932
6250.264,9.766699
6256.049,9.766779
6261.834,9.784053
6267.62,9.789045
6273.405,9.802285
6279.191,9.8063
6284.977,9.818569
6290.762,9.822596
6296.547,9.825616
6302.333,9.839534
6308.118,9.834349
6313.904,9.839175
6319.689,9.833362
6325.475,9.821362
6331.26,9.810003
6337.046,9.799953
6342.831,9.781022
6348.617,9.761571
6354.402,9.737153
6360.188,9.711907
6365.974,9.665824
6371.759,9.619033
6377.544,9.577004
6383.33,9.555312
6389.115,9.536304
6394.901,9.526285
6400.687,9.49871
6406.472,9.444906
6412.257,9.37431
6418.043,9.320309
6423.828,9.288672
6429.614,9.267111
6435.399,9.227732
6441.185,9.177937
6446.97,9.100095
6452.756,9.007008
6458.541,8.909582
6464.327,8.751653
6470.112,8.523257
6475.897,8.257312
6481.684,8.100791
6487.469,8.10733
6493.254,8.187526
6499.04,8.271955
6504.825,8.34809
6510.61,8.414711
6516.396,8.462904
6522.182,8.502037
6527.967,8.540329
6533.753,8.572971
6539.538,8.595288
6545.324,8.618834
6551.109,8.6361
6556.895,8.65346
6562.68,8.674163
6568.466,8.702764
6574.251,8.727353
6580.037,8.749747
6585.822,8.761462
6591.607,8.771721
6597.393,8.781047
6603.179,8.779371
6608.964,8.776009
6614.75,8.776957
6620.535,8.761959
6626.32,8.746145
6632.106,8.733873
6637.892,8.713078
6643.677,8.693736
6649.463,8.671741
6655.248,8.642681
6661.034,8.612241
6666.819,8.576672
6672.604,8.547484
6678.39,8.509226
6684.176,8.469679
6689.961,8.425228
6695.747,8.384969
6701.532,8.336413
6707.317,8.291428
6713.103,8.227603
6718.889,8.178741
6724.674,8.122615
6730.459,8.075559
6736.245,8.027464
6742.03,7.97545
6747.816,7.923666
6753.602,7.875954
6759.387,7.829527
6765.173,7.772256
6770.958,7.713646
6776.743,7.650955
6782.529,7.562561
6788.314,7.478445
6794.1,7.379618
6799.886,7.282125
6805.671,7.188036
6811.457,7.096561
6817.242,7.009163
6823.027,6.906348
6828.813,6.80309
6834.599,6.725211
6840.384,6.671503
6846.169,6.632151
6851.955,6.583365
6857.74,6.52801
6863.526,6.482305
6869.312,6.432346
6875.097,6.368968
6880.882,6.300766
6886.668,6.235501
6892.453,6.169321
6898.239,6.098948
6904.024,6.047917
6909.81,6.005681
6915.596,5.95146
6921.381,5.885073
6927.166,5.82238
6932.952,5.734535
6938.737,5.640444
6944.523,5.552485
6950.309,5.499671
6956.094,5.481943
6961.879,5.478553
6967.665,5.469851
6973.45,5.474012
6979.236,5.458886
6985.021,5.452692
6990.807,5.425757
6996.592,5.398592
7002.378,5.363436
7008.163,5.312219
7013.949,5.284078
7019.734,5.243533
7025.52,5.232459
7031.305,5.231763
7037.091,5.242846
7042.876,5.229899
7048.662,5.181269
7054.447,5.091634
7060.232,4.993002
7066.019,4.988499
7071.804,5.092245
7077.589,5.229794
7083.375,5.347996
7089.16,5.423057
7094.946,5.492502
7100.731,5.565125
7106.517,5.663847
7112.302,5.755675
7118.088,5.869888
7123.873,5.92504
7129.659,5.958883
7135.444,5.930035
7141.229,5.859916
7147.015,5.752731
7152.801,5.575559
7158.586,5.304082
7164.372,4.937861
7170.157,4.687129
7175.942,4.696588
7181.729,4.883181
7187.514,5.099359
7193.299,5.340436
7199.085,5.564209
7204.87,5.817235
7210.655,6.017269
7216.441,6.21419
7222.227,6.422355
7228.012,6.651134
7233.798,6.867509
7239.583,7.038374
7245.369,7.235998
7251.154,7.415671
7256.939,7.595036
7262.725,7.799461
7268.511,7.978119
7274.296,8.171316
7280.082,8.344986
7285.867,8.526194
7291.652,8.702685
7297.438,8.877034
7303.224,9.045085
7309.009,9.231635
7314.794,9.39244
7320.58,9.537846
7326.365,9.667529
7332.151,9.76775
7337.937,9.853032
7343.722,9.933082
7349.508,10.01106
7355.293,10.10211
7361.079,10.18336
7366.864,10.27705
7372.649,10.36318
7378.435,10.45175
7384.221,10.53895
7390.006,10.60158
7395.792,10.65499
7401.577,10.69533
7407.362,10.74506
7413.148,10.76643
7418.934,10.79619
7424.719,10.80617
7430.504,10.83151
7436.29,10.85674
7442.075,10.85793
7447.861,10.88075
7453.646,10.89078
7459.432,10.90783
7465.218,10.92079
7471.003,10.92661
7476.788,10.9256
7482.574,10.93941
7488.359,10.93952
7494.145,10.93338
7499.931,10.93561
7505.716,10.92824
7511.501,10.92197
7517.287,10.91383
7523.072,10.91506
7528.858,10.90343
7534.644,10.89781
7540.429,10.87938
7546.214,10.87263
7552.0,10.85426
7557.785,10.8465
7563.571,10.83063
7569.356,10.81819
7575.142,10.8112
7580.927,10.79377
7586.713,10.78321
7592.498,10.7615
7598.284,10.74835
7604.069,10.71274
7609.854,10.69792
7615.641,10.67373
7621.426,10.64081
7627.211,10.61631
7632.997,10.58951
7638.782,10.5644
7644.568,10.53144
7650.354,10.50634
7656.139,10.46818
7661.924,10.45972
7667.71,10.43978
7673.495,10.40907
7679.281,10.39086
7685.066,10.37261
7690.852,10.35513
7696.637,10.34237
7702.423,10.33128
7708.208,10.30344
7713.994,10.28635
7719.779,10.26369
7725.564,10.24065
7731.35,10.22788
7737.136,10.21127
7742.921,10.19846
7748.707,10.17418
7754.492,10.14713
7760.277,10.12495
7766.063,10.10348
7771.849,10.06822
7777.634,10.04875
7783.42,10.03929
7789.205,10.03433
7794.991,10.01251
7800.776,9.995745
7806.562,9.963361
7812.347,9.932557
7818.133,9.918966
7823.918,9.89528
7829.704,9.872955
7835.489,9.84271
7841.274,9.813901
7847.06,9.776131
7852.846,9.744269
7858.631,9.706808
7864.417,9.672971
7870.202,9.623178
7875.987,9.586415
7881.773,9.545228
7887.559,9.50156
7893.344,9.449803
7899.13,9.377556
7904.915,9.351524
7910.7,9.300233
7916.486,9.254879
7922.271,9.194418
7928.057,9.133992
7933.843,9.074795
7939.628,9.011159
7945.414,8.941993
7951.199,8.881367
7956.984,8.815767
7962.77,8.735059
7968.556,8.658908
7974.341,8.579135
7980.126,8.517695
7985.912,8.437276
7991.697,8.354261
7997.483,8.27219
8003.269,8.185255
8009.054,8.093172
8014.839,8.003386
8020.625,7.909967
8026.41,7.813385
8032.196,7.729379
8037.981,7.608854
8043.767,7.516581
8049.553,7.40423
8055.338,7.293294
8061.124,7.179245
8066.909,7.071844
8072.694,6.957498
8078.48,6.84336
8084.266,6.727139
8090.051,6.606765
8095.836,6.479458
8101.622,6.353997
8107.407,6.23328
8113.192,6.100373
8118.979,5.961762
8124.764,5.823236
8130.55,5.680109
8136.335,5.545716
8142.12,5.430737
8147.906,5.288011
8153.691,5.156391
8159.477,5.019313
8165.263,4.891243
8171.048,4.769913
8176.833,4.654977
8182.619,4.548512
8188.404,4.454134
8194.189,4.367553
8199.976,4.319698
8205.761,4.265174
8211.546,4.233024
8217.332,4.206031
8223.117,4.206742
8228.902,4.189701
8234.688,4.189259
8240.474,4.211135
8246.259,4.221155
8252.045,4.243383
8257.83,4.257174
8263.616,4.28672
8269.401,4.318525
8275.187,4.380116
8280.973,4.418335
8286.758,4.490143
8292.543,4.567281
8298.329,4.644904
8304.114,4.71513
8309.899,4.788525
8315.686,4.864834
8321.471,4.948555
8327.256,5.021371
8333.042,5.110824
8338.827,5.194487
8344.612,5.298711
8350.398,5.403722
8356.184,5.496571
8361.969,5.608454
8367.755,5.701192
8373.54,5.80511
8379.325,5.895957
8385.111,5.979823
8390.896,6.059345
8396.683,6.099886
8402.468,6.146058
8408.253,6.177269
8414.039,6.197806
8419.824,6.205025
8425.609,6.254686
8431.396,6.322653
8437.181,6.426925
8442.966,6.542666
8448.752,6.668887
8454.537,6.811522
8460.322,6.939866
8466.108,7.040665
8471.894,7.149181
8477.679,7.256474
8483.465,7.374224
8489.25,7.48118
8495.035,7.579805
8500.821,7.663005
8506.606,7.727965
8512.392,7.76557
8518.178,7.813702
8523.963,7.879864
8529.748,7.930746
8535.534,7.945159
8541.319,7.927957
8547.105,7.868687
8552.891,7.766894
8558.676,7.66456
8564.462,7.615994
8570.247,7.6893
8576.032,7.838262
8581.818,7.976561
8587.604,8.150534
8593.389,8.334262
8599.175,8.530813
8604.96,8.723531
8610.745,8.914049
8616.531,9.089704
8622.316,9.265379
8628.102,9.431398
8633.888,9.561892
8639.673,9.692303
8645.458,9.831109
8651.244,9.904169
8657.029,10.00554
8662.814,10.09936
8668.601,10.17163
8674.386,10.24146
8680.172,10.31232
8685.957,10.38786
8691.742,10.48443
8697.528,10.57662
8703.313,10.68546
8709.099,10.78646
8714.885,10.87788
8720.67,10.99035
8726.455,11.08719
8732.241,11.18417
8738.026,11.28948
8743.812,11.37812
8749.598,11.47014
8755.383,11.54923
8761.168,11.62913
8766.954,11.68581
8772.739,11.75673
8778.524,11.80745
8784.311,11.86358
8790.096,11.91162
8795.881,11.94524
8801.667,11.98754
8807.452,12.02992
8813.237,12.06855
8819.023,12.07979
8824.809,12.11377
8830.595,12.12926
8836.38,12.15351
8842.165,12.18609
8847.951,12.17336
8853.736,12.18582
8859.521,12.19809
8865.308,12.20551
8871.093,12.22748
8876.878,12.22521
8882.664,12.24244
8888.449,12.22256
8894.234,12.23583
8900.021,12.238
8905.806,12.22441
8911.591,12.22315
8917.377,12.2268
8923.162,12.22673
8928.947,12.22406
8934.733,12.2255
8940.519,12.21979
8946.304,12.21867
8952.09,12.199
8957.875,12.21329
8963.661,12.20004
8969.446,12.21702
8975.231,12.22002
8981.018,12.2387
8986.803,12.2126
8992.588,12.23605
8998.374,12.24205
9004.159,12.26583
9009.944,12.23918
9015.73,12.26271
9021.516,12.26045
9027.301,12.29
9033.087,12.26848
9038.872,12.28321
9044.657,12.28864
9050.443,12.29505
9056.229,12.30116
9062.014,12.28772
9067.8,12.30843
9073.585,12.31881
9079.37,12.28845
9085.156,12.31387
9090.941,12.30637
9096.727,12.31468
9102.513,12.31568
9108.298,12.32122
9114.084,12.31514
9119.869,12.30748
9125.654,12.32082
9131.44,12.30016
9137.226,12.29712
9143.011,12.28662
9148.797,12.27366
9154.582,12.26048
9160.367,12.27761
9166.153,12.24818
9171.938,12.25715
9177.724,12.25436
9183.51,12.24202
9189.295,12.22698
9195.08,12.2013
9200.866,12.20885
9206.651,12.19602
9212.437,12.2009
9218.223,12.17488
9224.008,12.18555
9229.793,12.16749
9235.579,12.15336
9241.364,12.18249
9247.15,12.15082
9252.936,12.13763
9258.721,12.14133
9264.507,12.11646
9270.292,12.12745
9276.077,12.11139
9281.863,12.09016
9287.648,12.08287
9293.434,12.06671
9299.22,12.09004
9305.005,12.09226
9310.79,12.08739
9316.576,12.10534
9322.361,12.07996
9328.146,12.09771
9333.933,12.08501
9339.718,12.07369
9345.503,12.05437
9351.289,12.05658
9357.074,12.04099
9362.859,12.02853
9368.646,12.03268
9374.431,12.00841
9380.217,11.97635
9386.002,11.98294
9391.787,11.96736
9397.573,11.94905
9403.358,11.92566
9409.144,11.91992
9414.93,11.91257
9420.715,11.87428
9426.5,11.87648
9432.286,11.84422
9438.071,11.83929
9443.856,11.79904
9449.643,11.80417
9455.428,11.76524
9461.213,11.72906
9466.999,11.71572
9472.784,11.7001
9478.569,11.6923
9484.355,11.70679
9490.141,11.66642
9495.926,11.64784
9501.712,11.64462
9507.497,11.63939
9513.282,11.62392
9519.068,11.61233
9524.854,11.5934
9530.64,11.56981
9536.425,11.57634
9542.21,11.53527
9547.996,11.53446
9553.781,11.51444
9559.566,11.51254
9565.353,11.49492
9571.138,11.46406
9576.923,11.45634
9582.709,11.43421
9588.494,11.42949
9594.279,11.43781
9600.065,11.42962
9605.851,11.44757
9611.636,11.45758
9617.422,11.46975
9623.207,11.51398
9628.992,11.5278
9634.778,11.54476
9640.563,11.56497
9646.349,11.5891
9652.135,11.62421
9657.92,11.66205
9663.706,11.67025
9669.491,11.70527
9675.276,11.72166
9681.063,11.76877
9686.848,11.76381
9692.633,11.80667
9698.419,11.83811
9704.204,11.85434
9709.989,11.88307
9715.775,11.92198
9721.561,11.93543
9727.346,11.98677
9733.132,12.00517
9738.917,12.034
9744.702,12.03452
9750.488,12.07303
9756.273,12.06911
9762.059,12.09882
9767.845,12.12397
9773.63,12.11554
9779.415,12.13058
9785.201,12.12639
9790.986,12.13442
9796.771,12.1313
9802.558,12.13225
9808.343,12.15276
9814.129,12.12306
9819.914,12.15965
9825.699,12.16569
9831.485,12.15806
9837.271,12.16939
9843.056,12.21553
9848.842,12.27717
9854.627,12.27429
9860.412,12.29629
9866.198,12.31101
9871.983,12.35768
9877.769,12.40717
9883.555,12.43181
9889.34,12.48851
9895.125,12.48345
9900.911,12.54481
9906.696,12.55833
9912.481,12.5749
9918.268,12.57401
9924.053,12.60812
9929.838,12.6407
9935.624,12.67813
9941.409,12.70359
9947.195,12.68723
9952.98,12.71942
9958.766,12.74022
9964.552,12.78857
9970.337,12.77637
9976.122,12.81304
9981.908,12.83549
9987.693,12.84509
9993.479,12.84974
9999.265,12.82982
10005.05,12.86745
10010.83,12.88457
10016.62,12.88654
10022.41,12.90479
10028.19,12.90759
10033.98,12.94831
10039.76,12.9399
10045.55,12.95643
10051.33,13.01103
10057.12,12.98699
10062.9,13.01029
10068.69,13.03537
10074.48,13.01881
10080.26,13.02914
10086.05,13.03811
10091.83,13.05441
10097.62,13.03444
10103.4,13.07373
10109.19,13.04551
10114.97,13.06495
10120.76,13.09686
10126.54,13.11018
10132.33,13.092
10138.12,13.10719
10143.9,13.11296
10149.69,13.05941
10155.47,13.11482
10161.26,13.1168
10167.04,13.12374
10172.83,13.11138
10178.61,13.1381
10184.4,13.0838
10190.19,13.12225
10195.97,13.12106
10201.76,13.10645
10207.54,13.12333
10213.33,13.17159
10219.11,13.15185
10224.9,13.15737
10230.68,13.13499
10236.47,13.13018
10242.25,13.09044
10248.04,13.14811
10253.83,13.16234
10259.61,13.13802
10265.4,13.13656
10271.18,13.109
10276.97,13.10352
10282.75,13.09502
10288.54,13.11304
10294.32,13.08204
10300.11,13.09989
10305.9,13.12585
10311.68,13.09563
10317.47,13.07585
10323.25,13.10091
10329.04,13.06921
10334.82,13.0837
10340.61,13.07337
10346.39,13.09547
10352.18,13.0283
10357.96,13.01286
10363.75,13.08956
10369.54,13.00615
10375.32,13.04798
10381.11,13.02625
10386.89,13.01022
10392.68,13.04435
10398.46,12.99664
10404.25,13.00962
10410.03,12.97087
10415.82,13.01868
10421.61,12.94107
10427.39,12.94817
10433.18,12.93836
10438.96,12.93291
10444.75,12.90183
10450.53,12.89184
10456.32,12.90662
10462.1,12.83675
10467.89,12.88839
10473.67,12.87691
10479.46,12.84587
10485.25,12.79455
10491.03,12.75705
10496.82,12.70765
10502.6,12.68572
10508.39,12.66057
10514.17,12.65322
10519.96,12.65459
10525.74,12.58558
10531.53,12.53058
10537.32,12.49403
10543.1,12.52446
10548.89,12.46922
10554.67,12.37379
10560.46,12.33464
10566.24,12.30073
10572.03,12.25173
10577.81,12.16541
10583.6,12.05421
10589.38,11.99293
10595.17,12.0033
10600.96,11.86604
10606.74,11.7675
10612.53,11.72294
10618.31,11.63243
10624.1,11.56933
10629.88,11.43044
10635.67,11.34615
10641.45,11.22706
10647.24,11.17178
10653.03,11.0164
10658.81,10.94738
10664.6,10.83465
10670.38,10.7808
10676.17,10.70116
10681.95,10.61878
10687.74,10.52109
10693.52,10.49208
10699.31,10.418
10705.09,10.41745
10710.88,10.33655
10716.67,10.394
10722.45,10.38317
10728.24,10.31356
10734.02,10.32558
10739.81,10.37724
10745.59,10.37797
10751.38,10.43674
10757.16,10.45023
10762.95,10.48267
10768.74,10.52429
10774.52,10.55818
10780.31,10.6245
10786.09,10.66334
10791.88,10.81368
10797.66,10.81082
10803.45,10.93879
10809.23,10.90508
10815.02,11.00812
10820.8,11.02171
10826.59,11.1137
10832.38,11.20427
10838.16,11.31684
10843.95,11.34257
10849.73,11.47635
10855.52,11.46491
10861.3,11.58512
10867.09,11.59367
10872.87,11.6649
10878.66,11.76361
10884.45,11.79906
10890.23,11.81728
10896.02,11.95325
10901.8,12.00918
10907.59,12.021
10913.37,12.10795
10919.16,12.13253
10924.94,12.19398
10930.73,12.2823
10936.51,12.37545
10942.3,12.35605
10948.09,12.3618
10953.87,12.47439
10959.66,12.53206
10965.44,12.60192
10971.23,12.51371
10977.01,12.63926
10982.8,12.66019
10988.58,12.74285
10994.37,12.77393
11000.16,12.7975
11005.94,12.80694
11011.73,12.82331
11017.51,12.83423
11023.3,12.99046
11029.08,12.97223
11034.87,12.9497
11040.65,13.0583
11046.44,13.02827
11052.22,13.09762
11058.01,13.04435
11063.79,13.10196
11069.58,13.06389
11075.37,13.13947
11081.15,13.1786
11086.94,13.17486
11092.72,13.1352
11098.51,13.21829
11104.29,13.19199
11110.08,13.16647
11115.87,13.25285
11121.65,13.22502
11127.44,13.12095
11133.22,13.30924
11139.01,13.25602
11144.79,13.29777
11150.58,13.28825
11156.36,13.27395
11162.15,13.2866
11167.93,13.31852
11173.72,13.38491
11179.5,13.40946
11185.29,13.36581
11191.08,13.41634
11196.86,13.38672
11202.65,13.46912
11208.43,13.50342
11214.22,13.56218
11220.0,13.56516
11225.79,13.57231
11231.58,13.64239
11237.36,13.60819
11243.15,13.57533
11248.93,13.56403
11254.72,13.71401
11260.5,13.67896
11266.29,13.60979
11272.07,13.76448
11277.86,13.63078
11283.64,13.70719
11289.43,13.68375
11295.21,13.83347
11301.0,13.65437
11306.79,13.79532
11312.57,13.79395
11318.36,13.73737
11324.14,13.78592
11329.93,13.93688
11335.71,13.76767
11341.5,13.83277
11347.28,13.84892
11353.07,13.81787
11358.86,13.77207
11364.64,13.90471
11370.43,13.76597
11376.21,13.84661
11382.0,13.84676
11387.78,13.91922
11393.57,13.93688
11399.35,13.84672
11405.14,13.9545
11410.92,13.89227
11416.71,13.79318
11422.5,13.96577
11428.28,13.96557
11434.07,14.02707
11439.85,14.04067
11445.64,13.98304
11451.42,14.0448
11457.21,14.06591
11462.99,14.01995
11468.78,14.05466
11474.57,14.04328
11480.35,14.04805
11486.14,14.06471
11491.92,14.02317
11497.71,14.02222
11503.49,13.93858
11509.28,14.09366
11515.06,14.0122
11520.85,14.06861
11526.63,14.09123
11532.42,14.20226
11538.21,14.11258
11543.99,14.20496
11549.78,14.1427
11555.56,14.11567
11561.35,14.09973
11567.13,14.14459
11572.92,14.10792
11578.7,14.21591
11584.49,14.06776
11590.28,14.28133
11596.06,14.09084
11601.85,14.14671
11607.63,14.26359
11613.42,14.09512
11619.2,14.22549
11624.99,14.19791
11630.77,14.20772
11636.56,14.23156
11642.34,14.23862
11648.13,14.19686
11653.92,14.22931
11659.7,14.22867
11665.49,14.20333
11671.27,14.36229
11677.06,14.2372
11682.84,14.23691
11688.63,14.15472
11694.41,14.18499
11700.2,14.03559
11705.99,14.19854
11711.77,14.3339
11717.56,14.14894
11723.34,14.09932
11729.13,14.12555
11734.91,14.32034
11740.7,14.16008
11746.48,14.15286
11752.27,14.14665
11758.05,14.11467
11763.84,14.22758
11769.63,14.14774
11775.41,14.21252
11781.2,14.19735
11786.98,14.29152
11792.77,14.15848
11798.55,14.17773
11804.34,14.13046
11810.12,14.10418
11815.91,14.28159
11821.7,14.24382
11827.48,14.22983
11833.27,14.06335
11839.05,14.30245
11844.84,14.14136
11850.62,14.26202
11856.41,14.10112
11862.19,14.19807
11867.98,13.99047
11873.76,14.03642
11879.55,14.06893
11885.34,14.06595
11891.12,14.1046
11896.91,14.10164
11902.69,14.09758
11908.48,13.81115
11914.26,14.08517
11920.05,14.15019
11925.83,13.94269
11931.62,14.085
11937.41,13.95647
11943.19,13.95127
11948.98,13.90669
11954.76,13.98373
11960.55,13.80316
11966.33,14.02732
11972.12,13.8319
11977.9,14.04422
11983.69,13.852
11989.47,13.81796
11995.26,13.74364
11999.12,13.80696