File: Data/NIR/S0081LDPE_1.csv
Wavenumber,Intensity
3999.706,2.956352
4005.491,2.955401
4011.277,2.963623
4017.062,2.964507
4022.848,2.965484
4028.633,2.972403
4034.419,2.974128
4040.204,2.972395
4045.99,2.975029
4051.775,2.978965
4057.561,2.983068
4063.346,2.983876
4069.132,2.982201
4074.917,2.989526
4080.703,2.990369
4086.488,2.993755
4092.274,2.993274
4098.059,2.991648
4103.845,2.995705
4109.63,2.997127
4115.416,3.000155
4121.201,3.000637
4126.987,3.002675
4132.772,3.003189
4138.558,3.004669
4144.343,3.005089
4150.129,3.006435
4155.914,3.012161
4161.7,3.0143
4167.485,3.01364
4173.271,3.020236
4179.056,3.027851
4184.842,3.03122
4190.627,3.036425
4196.413,3.041239
4202.198,3.052796
4207.983,3.058064
4213.769,3.068949
4219.555,3.069561
4225.34,3.075848
4231.125,3.080924
4236.911,3.087941
4242.697,3.093412
4248.482,3.083168
4254.268,3.087944
4260.053,3.09411
4265.838,3.1061
4271.624,3.111817
4277.41,3.11022
4283.195,3.115678
4288.98,3.123478
4294.766,3.126364
4300.552,3.121037
4306.337,3.123987
4312.123,3.116556
4317.908,3.110395
4323.693,3.10498
4329.479,3.111954
4335.265,3.117924
4341.05,3.119439
4346.835,3.126686
4352.621,3.12877
4358.407,3.135003
4364.192,3.138591
4369.978,3.139563
4375.763,3.143679
4381.548,3.147352
4387.334,3.150927
4393.12,3.162895
4398.905,3.170402
4404.69,3.185086
4410.476,3.195035
4416.262,3.223786
4422.047,3.248706
4427.833,3.280782
4433.618,3.304468
4439.403,3.338044
4445.189,3.374043
4450.975,3.4165
4456.76,3.462045
4462.545,3.500904
4468.331,3.540549
4474.116,3.576499
4479.902,3.624466
4485.688,3.661858
4491.473,3.700655
4497.258,3.751393
4503.044,3.797517
4508.83,3.839563
4514.615,3.890369
4520.4,3.939133
4526.186,3.988142
4531.971,4.03862
4537.757,4.086264
4543.542,4.142796
4549.328,4.197376
4555.113,4.253152
4560.899,4.310961
4566.685,4.366563
4572.47,4.408233
4578.255,4.453136
4584.041,4.488107
4589.826,4.518054
4595.612,4.546231
4601.397,4.573252
4607.183,4.600073
4612.968,4.616004
4618.754,4.642294
4624.539,4.670355
4630.325,4.68969
4636.11,4.700958
4641.896,4.709856
4647.681,4.7109
4653.467,4.699373
4659.252,4.667566
4665.038,4.624977
4670.823,4.642171
4676.609,4.70493
4682.394,4.757283
4688.18,4.786727
4693.965,4.800748
4699.751,4.804934
4705.536,4.806891
4711.322,4.796698
4717.107,4.775941
4722.893,4.753671
4728.678,4.72728
4734.464,4.710195
4740.249,4.704962
4746.035,4.690067
4751.82,4.67341
4757.605,4.652746
4763.391,4.632323
4769.177,4.596687
4774.962,4.555988
4780.748,4.536438
4786.533,4.526342
4792.319,4.512981
4798.104,4.5027
4803.89,4.478751
4809.675,4.452395
4815.46,4.413777
4821.246,4.384329
4827.032,4.350391
4832.817,4.326541
4838.603,4.293622
4844.388,4.256182
4850.174,4.212954
4855.959,4.177063
4861.745,4.145097
4867.53,4.127449
4873.315,4.127325
4879.101,4.138393
4884.887,4.148799
4890.672,4.168474
4896.458,4.174352
4902.243,4.186415
4908.028,4.195549
4913.814,4.201324
4919.6,4.197116
4925.385,4.197173
4931.17,4.193586
4936.956,4.19589
4942.742,4.180961
4948.527,4.150475
4954.313,4.098011
4960.098,4.019274
4965.883,3.996648
4971.669,4.019657
4977.455,4.034919
4983.24,4.05935
4989.025,4.093152
4994.811,4.125938
5000.597,4.170073
5006.382,4.197128
5012.167,4.210744
5017.953,4.2145
5023.738,4.230553
5029.524,4.247089
5035.31,4.253766
5041.095,4.262934
5046.88,4.263829
5052.666,4.251279
5058.451,4.238272
5064.237,4.227319
5070.022,4.227896
5075.808,4.229386
5081.593,4.223365
5087.379,4.21602
5093.165,4.211411
5098.95,4.203728
5104.735,4.208615
5110.521,4.221216
5116.307,4.230964
5122.092,4.23915
5127.877,4.251123
5133.663,4.257543
5139.448,4.25448
5145.234,4.238503
5151.02,4.225953
5156.805,4.216058
5162.59,4.213372
5168.376,4.217164
5174.161,4.210468
5179.947,4.206217
5185.732,4.203368
5191.518,4.204
5197.303,4.212699
5203.089,4.217768
5208.874,4.215322
5214.66,4.211563
5220.445,4.214706
5226.231,4.225955
5232.016,4.228825
5237.802,4.231677
5243.587,4.251287
5249.373,4.245858
5255.158,4.256485
5260.944,4.261668
5266.729,4.259797
5272.515,4.248063
5278.3,4.251792
5284.086,4.261561
5289.871,4.259881
5295.657,4.249074
5301.442,4.232913
5307.228,4.230625
5313.013,4.231675
5318.799,4.267008
5324.584,4.292986
5330.37,4.297203
5336.155,4.29163
5341.94,4.260576
5347.726,4.217329
5353.512,4.184669
5359.297,4.140562
5365.083,4.113829
5370.868,4.081565
5376.654,4.062897
5382.439,4.044981
5388.225,4.019417
5394.01,3.996609
5399.796,3.961971
5405.581,3.929338
5411.367,3.8976
5417.152,3.840184
5422.938,3.818529
5428.723,3.812237
5434.509,3.801368
5440.294,3.793019
5446.08,3.774077
5451.865,3.766559
5457.65,3.757599
5463.436,3.753222
5469.222,3.738013
5475.007,3.731799
5480.792,3.70179
5486.578,3.691054
5492.363,3.688771
5498.149,3.682476
5503.935,3.688131
5509.72,3.690777
5515.505,3.700113
5521.291,3.706253
5527.077,3.702019
5532.862,3.702574
5538.647,3.700468
5544.433,3.692257
5550.219,3.690522
5556.004,3.689042
5561.79,3.703124
5567.575,3.716899
5573.36,3.741089
5579.146,3.769006
5584.932,3.786804
5590.717,3.793843
5596.502,3.785478
5602.288,3.769665
5608.073,3.738629
5613.859,3.71493
5619.645,3.689268
5625.43,3.659707
5631.215,3.637018
5637.001,3.610872
5642.786,3.576026
5648.572,3.525849
5654.357,3.473767
5660.143,3.43651
5665.929,3.43365
5671.714,3.450373
5677.5,3.475144
5683.285,3.501316
5689.07,3.52246
5694.856,3.547461
5700.642,3.586259
5706.427,3.627842
5712.212,3.652886
5717.998,3.656691
5723.783,3.623759
5729.569,3.556173
5735.354,3.534591
5741.14,3.514359
5746.925,3.475667
5752.711,3.444422
5758.496,3.416669
5764.282,3.395834
5770.067,3.381997
5775.853,3.378504
5781.638,3.382497
5787.424,3.39623
5793.209,3.405701
5798.995,3.415665
5804.78,3.427513
5810.566,3.442845
5816.352,3.455609
5822.137,3.476185
5827.922,3.49809
5833.708,3.527315
5839.493,3.558987
5845.279,3.601401
5851.064,3.667659
5856.85,3.748575
5862.635,3.865507
5868.421,4.009907
5874.206,4.186224
5879.992,4.385354
5885.777,4.584198
5891.563,4.763582
5897.348,4.887228
5903.134,4.991618
5908.919,5.139551
5914.705,5.333212
5920.49,5.582518
5926.276,5.856558
5932.061,6.126325
5937.847,6.35966
5943.632,6.573045
5949.418,6.768514
5955.203,6.958706
5960.989,7.150376
5966.774,7.357439
5972.56,7.558122
5978.345,7.743441
5984.131,7.912062
5989.916,8.074162
5995.702,8.225238
6001.487,8.360997
6007.272,8.50382
6013.058,8.636281
6018.844,8.758989
6024.629,8.881307
6030.415,8.987977
6036.2,9.087626
6041.985,9.178349
6047.771,9.263964
6053.557,9.345071
6059.342,9.415682
6065.128,9.479568
6070.913,9.546405
6076.698,9.595665
6082.484,9.654187
6088.27,9.697155
6094.055,9.733696
6099.841,9.763385
6105.626,9.790436
6111.412,9.826385
6117.197,9.866803
6122.982,9.910804
6128.768,9.968263
6134.554,10.02644
6140.339,10.08444
6146.125,10.14034
6151.91,10.18684
6157.695,10.2426
6163.481,10.29414
6169.267,10.34507
6175.052,10.39297
6180.837,10.43639
6186.623,10.47692
6192.408,10.50529
6198.194,10.54066
6203.979,10.57097
6209.765,10.59735
6215.551,10.62831
6221.336,10.64793
6227.121,10.67265
6232.907,10.6952
6238.692,10.71224
6244.478,10.71906
6250.264,10.7289
6256.049,10.7377
6261.834,10.74738
6267.62,10.76427
6273.405,10.77385
6279.191,10.7829
6284.977,10.79023
6290.762,10.79288
6296.547,10.79922
6302.333,10.81027
6308.118,10.81358
6313.904,10.81817
6319.689,10.81145
6325.475,10.8036
6331.26,10.79115
6337.046,10.77624
6342.831,10.76047
6348.617,10.73645
6354.402,10.70678
6360.188,10.67818
6365.974,10.64005
6371.759,10.58442
6377.544,10.53914
6383.33,10.519
6389.115,10.50476
6394.901,10.48526
6400.687,10.45014
6406.472,10.38907
6412.257,10.31707
6418.043,10.26247
6423.828,10.22903
6429.614,10.19812
6435.399,10.16614
6441.185,10.10106
6446.97,10.01966
6452.756,9.925199
6458.541,9.807525
6464.327,9.632627
6470.112,9.372194
6475.897,9.082113
6481.684,8.907929
6487.469,8.914729
6493.254,9.004843
6499.04,9.10153
6504.825,9.185633
6510.61,9.265268
6516.396,9.315103
6522.182,9.359685
6527.967,9.404373
6533.753,9.441008
6539.538,9.464781
6545.324,9.491675
6551.109,9.517528
6556.895,9.534374
6562.68,9.558903
6568.466,9.593534
6574.251,9.626554
6580.037,9.659405
6585.822,9.667801
6591.607,9.67609
6597.393,9.683049
6603.179,9.684856
6608.964,9.682599
6614.75,9.677123
6620.535,9.667381
6626.32,9.648019
6632.106,9.628383
6637.892,9.617766
6643.677,9.588242
6649.463,9.569405
6655.248,9.533578
6661.034,9.505152
6666.819,9.458737
6672.604,9.435138
6678.39,9.387857
6684.176,9.34924
6689.961,9.29881
6695.747,9.24922
6701.532,9.198167
6707.317,9.141389
6713.103,9.086533
6718.889,9.016621
6724.674,8.959013
6730.459,8.904087
6736.245,8.84998
6742.03,8.798705
6747.816,8.73649
6753.602,8.682658
6759.387,8.631557
6765.173,8.573252
6770.958,8.500759
6776.743,8.422169
6782.529,8.326593
6788.314,8.234802
6794.1,8.130994
6799.886,8.017027
6805.671,7.910453
6811.457,7.810373
6817.242,7.696301
6823.027,7.591403
6828.813,7.476752
6834.599,7.376916
6840.384,7.317959
6846.169,7.272425
6851.955,7.218694
6857.74,7.158257
6863.526,7.104188
6869.312,7.038544
6875.097,6.974333
6880.882,6.901076
6886.668,6.819656
6892.453,6.740382
6898.239,6.657485
6904.024,6.605561
6909.81,6.552791
6915.596,6.500197
6921.381,6.42135
6927.166,6.343665
6932.952,6.247251
6938.737,6.136016
6944.523,6.036396
6950.309,5.966933
6956.094,5.946373
6961.879,5.944738
6967.665,5.942493
6973.45,5.943832
6979.236,5.931994
6985.021,5.915086
6990.807,5.890263
6996.592,5.860414
7002.378,5.816423
7008.163,5.766529
7013.949,5.718427
7019.734,5.684146
7025.52,5.651967
7031.305,5.674613
7037.091,5.677772
7042.876,5.675839
7048.662,5.604337
7054.447,5.496635
7060.232,5.382978
7066.019,5.380816
7071.804,5.503519
7077.589,5.652107
7083.375,5.798186
7089.16,5.890227
7094.946,5.978672
7100.731,6.053472
7106.517,6.171652
7112.302,6.294016
7118.088,6.40801
7123.873,6.479785
7129.659,6.509964
7135.444,6.490117
7141.229,6.408883
7147.015,6.277985
7152.801,6.070179
7158.586,5.764717
7164.372,5.333261
7170.157,5.02887
7175.942,5.035909
7181.729,5.258899
7187.514,5.520929
7193.299,5.796834
7199.085,6.06403
7204.87,6.339622
7210.655,6.592613
7216.441,6.819949
7222.227,7.060656
7228.012,7.319833
7233.798,7.575976
7239.583,7.776062
7245.369,7.983064
7251.154,8.203528
7256.939,8.414739
7262.725,8.63634
7268.511,8.846645
7274.296,9.068048
7280.082,9.268131
7285.867,9.485783
7291.652,9.674258
7297.438,9.867537
7303.224,10.0569
7309.009,10.26577
7314.794,10.44992
7320.58,10.61176
7326.365,10.77236
7332.151,10.86783
7337.937,10.97338
7343.722,11.06771
7349.508,11.13511
7355.293,11.24413
7361.079,11.3378
7366.864,11.44966
7372.649,11.54308
7378.435,11.6433
7384.221,11.73526
7390.006,11.80899
7395.792,11.85608
7401.577,11.9116
7407.362,11.96549
7413.148,11.99352
7418.934,12.02531
7424.719,12.0528
7430.504,12.07038
7436.29,12.09113
7442.075,12.10132
7447.861,12.12859
7453.646,12.14412
7459.432,12.16342
7465.218,12.16808
7471.003,12.18011
7476.788,12.19073
7482.574,12.19434
7488.359,12.19718
7494.145,12.1978
7499.931,12.18533
7505.716,12.18581
7511.501,12.17923
7517.287,12.17224
7523.072,12.16785
7528.858,12.16725
7534.644,12.16208
7540.429,12.14496
7546.214,12.13302
7552.0,12.12105
7557.785,12.11046
7563.571,12.10118
7569.356,12.07711
7575.142,12.06704
7580.927,12.04995
7586.713,12.03333
7592.498,12.01747
7598.284,11.9853
7604.069,11.97435
7609.854,11.95135
7615.641,11.92073
7621.426,11.89466
7627.211,11.86427
7632.997,11.83503
7638.782,11.80045
7644.568,11.76576
7650.354,11.74602
7656.139,11.71845
7661.924,11.6915
7667.71,11.66146
7673.495,11.64392
7679.281,11.6164
7685.066,11.60662
7690.852,11.58057
7696.637,11.57488
7702.423,11.54813
7708.208,11.52135
7713.994,11.50802
7719.779,11.48072
7725.564,11.46391
7731.35,11.44022
7737.136,11.42746
7742.921,11.41398
7748.707,11.38455
7754.492,11.36812
7760.277,11.33065
7766.063,11.30293
7771.849,11.28405
7777.634,11.25979
7783.42,11.25018
7789.205,11.23057
7794.991,11.21913
7800.776,11.1925
7806.562,11.15734
7812.347,11.13828
7818.133,11.11076
7823.918,11.08713
7829.704,11.05496
7835.489,11.02565
7841.274,10.99216
7847.06,10.96613
7852.846,10.92316
7858.631,10.86805
7864.417,10.82382
7870.202,10.7935
7875.987,10.75212
7881.773,10.69299
7887.559,10.65559
7893.344,10.59179
7899.13,10.56024
7904.915,10.48023
7910.7,10.42699
7916.486,10.36761
7922.271,10.30721
7928.057,10.23667
7933.843,10.17236
7939.628,10.10231
7945.414,10.02512
7951.199,9.951014
7956.984,9.873252
7962.77,9.788425
7968.556,9.713293
7974.341,9.623621
7980.126,9.536968
7985.912,9.44678
7991.697,9.348861
7997.483,9.265632
8003.269,9.16162
8009.054,9.070773
8014.839,8.95969
8020.625,8.849285
8026.41,8.749013
8032.196,8.623462
8037.981,8.514226
8043.767,8.394904
8049.553,8.269788
8055.338,8.141067
8061.124,8.021767
8066.909,7.888035
8072.694,7.760423
8078.48,7.625591
8084.266,7.483297
8090.051,7.336181
8095.836,7.208061
8101.622,7.051121
8107.407,6.901098
8113.192,6.75621
8118.979,6.585361
8124.764,6.438115
8130.55,6.278369
8136.335,6.118213
8142.12,5.951443
8147.906,5.791195
8153.691,5.635443
8159.477,5.495386
8165.263,5.328528
8171.048,5.188587
8176.833,5.048391
8182.619,4.92005
8188.404,4.81071
8194.189,4.71682
8199.976,4.636941
8205.761,4.586141
8211.546,4.54594
8217.332,4.514534
8223.117,4.500993
8228.902,4.499783
8234.688,4.512643
8240.474,4.521988
8246.259,4.533539
8252.045,4.54224
8257.83,4.572363
8263.616,4.607643
8269.401,4.65605
8275.187,4.716685
8280.973,4.775647
8286.758,4.854258
8292.543,4.947475
8298.329,5.036228
8304.114,5.116249
8309.899,5.21718
8315.686,5.318858
8321.471,5.396951
8327.256,5.5109
8333.042,5.60479
8338.827,5.707677
8344.612,5.836997
8350.398,5.955325
8356.184,6.074457
8361.969,6.190682
8367.755,6.308949
8373.54,6.429852
8379.325,6.535533
8385.111,6.640507
8390.896,6.734475
8396.683,6.790727
8402.468,6.82202
8408.253,6.862891
8414.039,6.886485
8419.824,6.92056
8425.609,6.960945
8431.396,7.052777
8437.181,7.157101
8442.966,7.307678
8448.752,7.474719
8454.537,7.627524
8460.322,7.763404
8466.108,7.887976
8471.894,8.012046
8477.679,8.143712
8483.465,8.287217
8489.25,8.415962
8495.035,8.530341
8500.821,8.6162
8506.606,8.688142
8512.392,8.737917
8518.178,8.808701
8523.963,8.874841
8529.748,8.927287
8535.534,8.927967
8541.319,8.915466
8547.105,8.850517
8552.891,8.719888
8558.676,8.613142
8564.462,8.551819
8570.247,8.650784
8576.032,8.806411
8581.818,8.99251
8587.604,9.178314
8593.389,9.40682
8599.175,9.607516
8604.96,9.842047
8610.745,10.07051
8616.531,10.28091
8622.316,10.48233
8628.102,10.65751
8633.888,10.8177
8639.673,10.96106
8645.458,11.1026
8651.244,11.22566
8657.029,11.32516
8662.814,11.43952
8668.601,11.51412
8674.386,11.60626
8680.172,11.70959
8685.957,11.78633
8691.742,11.86069
8697.528,11.99022
8703.313,12.08706
8709.099,12.21691
8714.885,12.33752
8720.67,12.45145
8726.455,12.55693
8732.241,12.68737
8738.026,12.78279
8743.812,12.8952
8749.598,12.99447
8755.383,13.1005
8761.168,13.15863
8766.954,13.23243
8772.739,13.30547
8778.524,13.37509
8784.311,13.44492
8790.096,13.51238
8795.881,13.53475
8801.667,13.57911
8807.452,13.6439
8813.237,13.66646
8819.023,13.68898
8824.809,13.73021
8830.595,13.754
8836.38,13.76675
8842.165,13.78463
8847.951,13.80312
8853.736,13.8299
8859.521,13.8325
8865.308,13.85848
8871.093,13.85861
8876.878,13.86137
8882.664,13.86681
8888.449,13.87855
8894.234,13.87584
8900.021,13.91154
8905.806,13.87289
8911.591,13.86351
8917.377,13.87095
8923.162,13.87917
8928.947,13.87395
8934.733,13.86642
8940.519,13.86441
8946.304,13.87058
8952.09,13.8849
8957.875,13.85085
8963.661,13.8801
8969.446,13.87999
8975.231,13.87076
8981.018,13.89443
8986.803,13.89037
8992.588,13.8919
8998.374,13.89724
9004.159,13.92185
9009.944,13.91109
9015.73,13.93705
9021.516,13.9448
9027.301,13.95229
9033.087,13.9582
9038.872,13.95221
9044.657,13.97457
9050.443,13.97747
9056.229,13.97925
9062.014,14.00525
9067.8,13.98597
9073.585,13.975
9079.37,14.00272
9085.156,14.01708
9090.941,14.0049
9096.727,14.00101
9102.513,14.02096
9108.298,14.00222
9114.084,13.99592
9119.869,13.98922
9125.654,14.00277
9131.44,13.98963
9137.226,13.99126
9143.011,13.97974
9148.797,13.98841
9154.582,13.98266
9160.367,13.9872
9166.153,13.95921
9171.938,13.95482
9177.724,13.97013
9183.51,13.92664
9189.295,13.91427
9195.08,13.91049
9200.866,13.91052
9206.651,13.89273
9212.437,13.89567
9218.223,13.88306
9224.008,13.87798
9229.793,13.86873
9235.579,13.86073
9241.364,13.84288
9247.15,13.86365
9252.936,13.84406
9258.721,13.8274
9264.507,13.83316
9270.292,13.82059
9276.077,13.81126
9281.863,13.82714
9287.648,13.78161
9293.434,13.80279
9299.22,13.782
9305.005,13.79161
9310.79,13.79876
9316.576,13.7994
9322.361,13.79034
9328.146,13.78877
9333.933,13.78481
9339.718,13.78504
9345.503,13.77111
9351.289,13.78312
9357.074,13.75278
9362.859,13.74381
9368.646,13.71602
9374.431,13.71834
9380.217,13.69435
9386.002,13.70024
9391.787,13.67516
9397.573,13.64377
9403.358,13.64059
9409.144,13.62202
9414.93,13.60929
9420.715,13.59114
9426.5,13.55507
9432.286,13.53053
9438.071,13.5293
9443.856,13.48488
9449.643,13.46883
9455.428,13.47284
9461.213,13.43541
9466.999,13.42094
9472.784,13.37916
9478.569,13.37553
9484.355,13.39141
9490.141,13.35529
9495.926,13.33975
9501.712,13.31748
9507.497,13.31253
9513.282,13.2939
9519.068,13.28849
9524.854,13.30013
9530.64,13.26929
9536.425,13.2626
9542.21,13.22678
9547.996,13.20627
9553.781,13.17124
9559.566,13.1503
9565.353,13.13496
9571.138,13.1465
9576.923,13.118
9582.709,13.10479
9588.494,13.09451
9594.279,13.09974
9600.065,13.09484
9605.851,13.10997
9611.636,13.12782
9617.422,13.15369
9623.207,13.15453
9628.992,13.21242
9634.778,13.22298
9640.563,13.23362
9646.349,13.29612
9652.135,13.29433
9657.92,13.34159
9663.706,13.37374
9669.491,13.42413
9675.276,13.44867
9681.063,13.45786
9686.848,13.52135
9692.633,13.54269
9698.419,13.56297
9704.204,13.5747
9709.989,13.63563
9715.775,13.67396
9721.561,13.69508
9727.346,13.73261
9733.132,13.78782
9738.917,13.79952
9744.702,13.82457
9750.488,13.84694
9756.273,13.8819
9762.059,13.89614
9767.845,13.89027
9773.63,13.9005
9779.415,13.92082
9785.201,13.90942
9790.986,13.95859
9796.771,13.95058
9802.558,13.93823
9808.343,13.93298
9814.129,13.93898
9819.914,13.9421
9825.699,13.91909
9831.485,13.95564
9837.271,13.97967
9843.056,14.01861
9848.842,14.0547
9854.627,14.08391
9860.412,14.09252
9866.198,14.13865
9871.983,14.17954
9877.769,14.23186
9883.555,14.26694
9889.34,14.29818
9895.125,14.33924
9900.911,14.34999
9906.696,14.37856
9912.481,14.40136
9918.268,14.45282
9924.053,14.48395
9929.838,14.47139
9935.624,14.49074
9941.409,14.54844
9947.195,14.59959
9952.98,14.58995
9958.766,14.6183
9964.552,14.63765
9970.337,14.69959
9976.122,14.68406
9981.908,14.70515
9987.693,14.69849
9993.479,14.71692
9999.265,14.75094
10005.05,14.73601
10010.83,14.78451
10016.62,14.7964
10022.41,14.80929
10028.19,14.8018
10033.98,14.83365
10039.76,14.81658
10045.55,14.91379
10051.33,14.90378
10057.12,14.92603
10062.9,14.9041
10068.69,14.88476
10074.48,14.97348
10080.26,14.95539
10086.05,14.98065
10091.83,14.96385
10097.62,14.96926
10103.4,15.00835
10109.19,14.99098
10114.97,15.00251
10120.76,14.98823
10126.54,15.05345
10132.33,15.03541
10138.12,15.06229
10143.9,15.02668
10149.69,15.05956
10155.47,15.04724
10161.26,15.04962
10167.04,15.0504
10172.83,15.06597
10178.61,14.99723
10184.4,15.08916
10190.19,15.07564
10195.97,15.06557
10201.76,15.06084
10207.54,15.05919
10213.33,15.06013
10219.11,15.04229
10224.9,15.07597
10230.68,15.05328
10236.47,15.07079
10242.25,15.03434
10248.04,15.03253
10253.83,15.05523
10259.61,15.05317
10265.4,15.06139
10271.18,15.04748
10276.97,15.06206
10282.75,15.02767
10288.54,15.05908
10294.32,15.05369
10300.11,15.08548
10305.9,15.04233
10311.68,15.01279
10317.47,15.01108
10323.25,15.06708
10329.04,15.01587
10334.82,15.04955
10340.61,15.00768
10346.39,15.0341
10352.18,15.01728
10357.96,15.04026
10363.75,15.02713
10369.54,15.01919
10375.32,14.99012
10381.11,14.98282
10386.89,15.00997
10392.68,14.95352
10398.46,14.93896
10404.25,14.98795
10410.03,14.93158
10415.82,14.92608
10421.61,14.97149
10427.39,14.89988
10433.18,14.86323
10438.96,14.8783
10444.75,14.91272
10450.53,14.81613
10456.32,14.86585
10462.1,14.83986
10467.89,14.77909
10473.67,14.79411
10479.46,14.72087
10485.25,14.72877
10491.03,14.71139
10496.82,14.66811
10502.6,14.62705
10508.39,14.60015
10514.17,14.59307
10519.96,14.53637
10525.74,14.51381
10531.53,14.4679
10537.32,14.44261
10543.1,14.4302
10548.89,14.36197
10554.67,14.30858
10560.46,14.21728
10566.24,14.18651
10572.03,14.11982
10577.81,13.92483
10583.6,13.95359
10589.38,13.89086
10595.17,13.79912
10600.96,13.68386
10606.74,13.60353
10612.53,13.47183
10618.31,13.43303
10624.1,13.28635
10629.88,13.16096
10635.67,13.03635
10641.45,12.93693
10647.24,12.84837
10653.03,12.71278
10658.81,12.60842
10664.6,12.52298
10670.38,12.39528
10676.17,12.30118
10681.95,12.24763
10687.74,12.13248
10693.52,12.10777
10699.31,12.04869
10705.09,12.01757
10710.88,12.00529
10716.67,11.94181
10722.45,11.94314
10728.24,11.90322
10734.02,11.9726
10739.81,11.92269
10745.59,11.94605
10751.38,11.98122
10757.16,12.07276
10762.95,12.09094
10768.74,12.12016
10774.52,12.2218
10780.31,12.24682
10786.09,12.32796
10791.88,12.35626
10797.66,12.49254
10803.45,12.54052
10809.23,12.61674
10815.02,12.70936
10820.8,12.80074
10826.59,12.82653
10832.38,12.94976
10838.16,13.03932
10843.95,13.08438
10849.73,13.15161
10855.52,13.19113
10861.3,13.31174
10867.09,13.48572
10872.87,13.55181
10878.66,13.60235
10884.45,13.63289
10890.23,13.73682
10896.02,13.77376
10901.8,13.84654
10907.59,13.90363
10913.37,14.02182
10919.16,14.06922
10924.94,14.12033
10930.73,14.14325
10936.51,14.2246
10942.3,14.25921
10948.09,14.23881
10953.87,14.36647
10959.66,14.4834
10965.44,14.54922
10971.23,14.61832
10977.01,14.57837
10982.8,14.67218
10988.58,14.67384
10994.37,14.70011
11000.16,14.77608
11005.94,14.79205
11011.73,14.86059
11017.51,14.87202
11023.3,14.93069
11029.08,14.96421
11034.87,14.97992
11040.65,15.07062
11046.44,15.03416
11052.22,15.08434
11058.01,15.11264
11063.79,15.15653
11069.58,15.18411
11075.37,15.18485
11081.15,15.2247
11086.94,15.18898
11092.72,15.21428
11098.51,15.22464
11104.29,15.23811
11110.08,15.23082
11115.87,15.19643
11121.65,15.27369
11127.44,15.2268
11133.22,15.28431
11139.01,15.24851
11144.79,15.32564
11150.58,15.36962
11156.36,15.34992
11162.15,15.43815
11167.93,15.42825
11173.72,15.48096
11179.5,15.46239
11185.29,15.50154
11191.08,15.56325
11196.86,15.60678
11202.65,15.55356
11208.43,15.61374
11214.22,15.66065
11220.0,15.72218
11225.79,15.70017
11231.58,15.72622
11237.36,15.70775
11243.15,15.73034
11248.93,15.78182
11254.72,15.80979
11260.5,15.83224
11266.29,15.84637
11272.07,15.84844
11277.86,15.927
11283.64,15.93211
11289.43,15.8923
11295.21,15.863
11301.0,15.96291
11306.79,15.9258
11312.57,15.95682
11318.36,15.88097
11324.14,15.97217
11329.93,16.03336
11335.71,16.00708
11341.5,15.91046
11347.28,16.06626
11353.07,16.13889
11358.86,16.0911
11364.64,16.08961
11370.43,16.03181
11376.21,16.0814
11382.0,15.99662
11387.78,16.13144
11393.57,16.15246
11399.35,16.11529
11405.14,16.11678
11410.92,16.15969
11416.71,16.22855
11422.5,16.12223
11428.28,16.17072
11434.07,16.24486
11439.85,16.2956
11445.64,16.07667
11451.42,16.32641
11457.21,16.26416
11462.99,16.23511
11468.78,16.25324
11474.57,16.27587
11480.35,16.36688
11486.14,16.24236
11491.92,16.38186
11497.71,16.28045
11503.49,16.34409
11509.28,16.26091
11515.06,16.39201
11520.85,16.32746
11526.63,16.38554
11532.42,16.30102
11538.21,16.35346
11543.99,16.30183
11549.78,16.40477
11555.56,16.41687
11561.35,16.40629
11567.13,16.35786
11572.92,16.34897
11578.7,16.38181
11584.49,16.48903
11590.28,16.47233
11596.06,16.40294
11601.85,16.53672
11607.63,16.37088
11613.42,16.49132
11619.2,16.4523
11624.99,16.58207
11630.77,16.4706
11636.56,16.51944
11642.34,16.45417
11648.13,16.57548
11653.92,16.62854
11659.7,16.69651
11665.49,16.45443
11671.27,16.69458
11677.06,16.5974
11682.84,16.504
11688.63,16.5773
11694.41,16.6085
11700.2,16.50802
11705.99,16.66607
11711.77,16.59216
11717.56,16.5759
11723.34,16.49286
11729.13,16.62994
11734.91,16.60516
11740.7,16.71194
11746.48,16.71403
11752.27,16.57547
11758.05,16.64453
11763.84,16.78866
11769.63,16.57173
11775.41,16.66725
11781.2,16.55165
11786.98,16.54806
11792.77,16.60965
11798.55,16.56573
11804.34,16.52709
11810.12,16.65605
11815.91,16.71012
11821.7,16.66932
11827.48,16.56953
11833.27,16.75969
11839.05,16.76913
11844.84,16.57624
11850.62,16.48826
11856.41,16.58747
11862.19,16.67252
11867.98,16.76738
11873.76,16.66409
11879.55,16.92089
11885.34,16.56125
11891.12,16.88325
11896.91,16.72772
11902.69,16.74487
11908.48,16.91967
11914.26,16.67416
11920.05,16.69498
11925.83,16.90394
11931.62,16.91731
11937.41,16.93887
11943.19,16.88848
11948.98,16.87261
11954.76,16.98082
11960.55,17.01901
11966.33,16.88331
11972.12,16.77117
11977.9,16.85415
11983.69,16.81889
11989.47,17.0399
11995.26,16.92081
11999.12,17.06693